micros,ax,ay,az,gx,gy,gz
0,-704,616,16840,96,-325,-8
2000,-648,600,16728,124,-312,33
4000,-664,660,16512,119,-294,-27
6000,-692,648,16460,116,-335,11
8000,-592,772,16548,142,-310,-26
10000,-696,832,16676,109,-274,-19
12000,-668,844,16676,128,-265,-55
14000,-708,796,16796,116,-250,-9
16000,-792,788,16996,66,-284,-32
18000,-836,784,17032,120,-291,-31
20004,-840,824,16712,125,-297,0
22000,-848,888,16704,88,-309,-19
24000,-844,864,16824,96,-300,-50
26000,-836,840,16592,106,-294,-32
28004,-804,896,16492,132,-320,-22
30000,-720,852,16416,120,-307,-22
32000,-736,828,16384,86,-315,-8
34000,-600,724,16412,81,-320,-2
36000,-620,640,16480,117,-306,-31
38004,-608,604,16576,109,-320,-1
40000,-668,588,16628,114,-280,-21
42000,-768,640,16600,103,-298,8
44000,-752,580,16692,107,-277,-49
46000,-796,796,16792,119,-295,-43
48000,-892,772,16872,91,-243,-6
50000,-972,792,16928,102,-219,9
52000,-944,800,16820,116,-275,9
54000,-932,868,16820,94,-263,-29
56000,-868,800,16976,96,-311,-19
58000,-848,692,16600,93,-289,-31
60000,-748,744,16532,101,-298,-46
62000,-756,800,16572,98,-340,-27
64000,-764,676,16540,144,-315,12
66000,-692,712,16516,105,-313,-33
68000,-640,692,16628,104,-301,-16
70000,-636,680,16464,115,-302,-3
72000,-604,716,16532,108,-312,-17
74000,-620,656,16540,98,-253,-29
76004,-648,668,16740,124,-265,7
78000,-788,724,16584,80,-283,-9
80000,-776,768,16624,139,-260,-26
82000,-816,796,16636,96,-264,-15
84004,-824,820,16592,83,-284,5
86000,-836,772,16580,89,-288,-22
88000,-860,812,16568,158,-279,-33
90000,-912,740,16764,110,-317,17
92000,-844,764,16916,131,-310,-17
94000,-876,792,16708,127,-314,-21
96000,-860,652,16764,106,-290,13
98000,-832,676,16728,122,-338,0
100000,-816,676,16720,115,-335,10
102000,-804,740,16624,104,-314,-52
104004,-748,708,16488,129,-327,-31
106000,-680,792,16516,122,-279,4
108000,-752,824,16572,85,-291,-9
110000,-780,688,16644,110,-317,-35
112000,-700,744,16648,107,-297,-1
114000,-776,768,16748,116,-280,-19
116000,-844,744,16796,122,-255,0
118004,-772,724,16960,97,-308,-8
120000,-720,752,16884,115,-300,-28
122000,-844,880,16788,118,-282,-20
124000,-768,832,16620,100,-297,-27
126000,-800,848,16604,110,-304,26
128000,-744,780,16544,112,-304,-16
130000,-716,752,16424,106,-308,-13
132000,-760,684,16456,122,-289,-19
134000,-668,704,16492,94,-305,-7
136000,-704,652,16568,116,-305,-36
138000,-704,676,16480,116,-284,-17
140000,-688,688,16464,108,-277,-26
142000,-684,716,16536,133,-261,-5
144000,-792,752,16676,99,-286,-4
146000,-876,804,16836,94,-289,-52
148000,-840,796,16952,112,-284,14
150000,-828,800,17004,110,-290,-5
152000,-820,780,16852,116,-288,-6
154000,-756,752,16772,110,-258,5
156004,-824,692,16808,134,-313,-6
158000,-820,760,16712,142,-274,-30
160000,-808,704,16616,120,-323,-13
162000,-684,764,16600,133,-310,-18
164004,-696,796,16584,110,-305,-26
166000,-680,720,16604,149,-333,-13
168000,-672,736,16540,120,-291,-36
170000,-668,796,16548,112,-279,-33
172000,-700,784,16692,78,-314,-14
174000,-712,652,16572,103,-281,-25
176000,-716,732,16568,136,-292,-15
178000,-724,752,16592,100,-294,0
180000,-752,820,16580,128,-248,3
182000,-776,756,16620,79,-284,-38
184000,-808,704,16868,95,-250,-6
186000,-880,756,16712,123,-249,-14
188000,-836,696,16752,108,-314,-43
190000,-796,728,16820,108,-323,-6
192000,-788,740,16796,123,-290,-11
194000,-748,696,16736,96,-297,-3
196000,-792,760,16720,108,-322,-9
198000,-780,724,16804,93,-288,-39
200000,-728,772,16584,96,-287,4
202000,-728,736,16624,139,-311,-26
204004,-716,748,16412,101,-318,-19
206000,-756,744,16336,149,-272,-7
208000,-672,692,16484,98,-275,-26
210000,-744,736,16660,140,-285,-8
212004,-788,764,16872,109,-274,-15
214000,-724,796,16960,126,-268,-34
216000,-788,748,16884,124,-270,-19
218000,-788,784,16756,107,-266,18
220000,-788,728,16700,85,-300,-13
222000,-820,784,16576,109,-283,-27
224000,-740,784,16496,117,-276,-17
226000,-716,772,16620,90,-283,-6
228000,-744,720,16592,100,-298,-18
230000,-700,708,16632,102,-296,-6
232004,-736,680,16596,95,-288,-20
234000,-692,676,16632,115,-278,6
236000,-672,680,16628,115,-296,-2
238000,-696,676,16728,151,-279,-27
240000,-712,724,16712,120,-298,-11
242000,-756,768,16660,112,-295,-30
244000,-804,760,16576,117,-285,-35
246004,-884,728,16880,99,-273,2
248000,-832,832,16784,132,-268,-4
250000,-856,740,16644,123,-268,-55
252000,-736,780,16648,97,-306,15
254004,-776,712,16664,111,-307,-19
256000,-704,692,16648,121,-278,-29
258000,-684,736,16676,159,-322,-37
260000,-696,748,16644,120,-319,-18
262000,-684,768,16724,145,-298,-27
264000,-748,740,16688,131,-286,-36
266000,-736,744,16664,119,-291,-30
268000,-756,780,16760,103,-274,-26
270000,-772,732,16600,102,-281,0
272000,-704,792,16512,80,-251,-33
274000,-764,784,16576,97,-237,-16
276000,-744,804,16564,118,-289,7
278000,-732,840,16636,164,-285,0
280000,-792,740,16604,97,-257,-15
282000,-816,788,16748,75,-266,1
284004,-836,736,16648,114,-277,-42
286000,-856,716,16768,95,-310,-9
288000,-828,740,16764,134,-316,-18
290000,-716,732,16720,134,-271,6
292000,-716,712,16568,130,-306,-33
294004,-700,752,16648,98,-316,-23
296000,-740,728,16664,114,-273,-11
298000,-772,748,16584,77,-278,-24
300000,-672,672,16540,97,-281,-9
302000,-768,760,16532,134,-273,-25
304000,-724,712,16480,86,-286,-10
306000,-704,764,16640,138,-267,-23
308000,-728,628,16624,109,-263,-24
310004,-744,712,16552,112,-284,-37
312004,-816,736,16816,116,-295,2
314000,-812,760,16800,124,-286,-22
316000,-792,880,16824,95,-284,-11
318000,-824,792,16748,129,-286,-19
320000,-800,784,16528,137,-268,-23
322000,-732,752,16620,126,-283,-1
324000,-768,728,16648,114,-282,-13
326000,-752,728,16596,126,-278,-26
328000,-740,704,16396,121,-293,-2
330000,-752,776,16596,108,-293,-14
332000,-744,728,16688,135,-320,-24
334000,-752,752,16676,90,-295,-30
336000,-740,732,16696,122,-316,-26
338000,-732,780,16784,102,-276,12
340000,-792,784,16696,62,-302,-14
342000,-848,752,16692,115,-286,-17
344000,-828,840,16736,113,-267,-14
346000,-824,760,16652,156,-304,-7
348000,-832,740,16624,103,-302,-44
350000,-892,760,16684,145,-289,-35
352000,-704,740,16772,123,-308,-30
354000,-724,708,16616,72,-255,-34
356000,-704,756,16612,113,-317,-24
358000,-752,744,16712,101,-309,-18
360004,-720,692,16588,112,-326,-47
362000,-640,648,16600,137,-283,-5
364000,-636,712,16608,91,-270,-5
366000,-672,648,16736,120,-317,-19
368000,-748,716,16716,100,-276,-33
370000,-736,756,16564,126,-231,-35
372000,-752,764,16572,147,-277,-33
374000,-856,760,16644,93,-294,-2
376000,-840,752,16660,97,-281,-28
378000,-788,728,16536,88,-271,-27
380000,-804,672,16632,129,-248,7
382004,-784,744,16840,100,-271,-44
384000,-788,780,16756,128,-309,-9
386000,-808,744,16704,73,-309,-48
388000,-848,716,16628,109,-233,-33
390004,-804,724,16836,120,-293,11
392000,-756,768,16692,132,-317,-43
394000,-780,732,16664,146,-317,0
396000,-704,760,16584,88,-285,-29
398000,-724,768,16488,113,-294,-48
400000,-736,696,16560,115,-304,-32
402000,-752,652,16524,114,-279,17
404000,-684,792,16524,118,-293,-29
406000,-776,704,16684,109,-304,8
408004,-700,712,16684,101,-274,-24
410000,-728,708,16832,104,-277,-29
412004,-744,800,16684,132,-288,-11
414000,-760,796,16760,140,-295,-24
416000,-732,760,16660,115,-275,-17
418000,-784,740,16680,125,-288,-11
420000,-740,736,16604,112,-317,-11
422004,-804,704,16616,138,-261,11
424000,-724,692,16708,132,-275,-27
426000,-736,692,16592,95,-305,-19
428000,-680,732,16704,93,-333,-14
430000,-756,684,16884,88,-253,-28
432000,-732,752,16744,94,-282,-26
434000,-740,780,16808,80,-358,-45
436000,-824,800,16684,148,-278,-11
438000,-856,784,16620,118,-264,-6
440004,-816,768,16572,90,-292,7
442004,-820,780,16644,122,-268,-10
444000,-836,808,16520,136,-298,-15
446000,-776,772,16472,121,-313,7
448000,-784,804,16620,112,-321,-19
450000,-848,784,16640,110,-320,-1
452000,-764,756,16656,78,-275,8
454000,-696,716,16648,102,-304,-18
456000,-704,732,16640,115,-313,-10
458000,-716,756,16612,133,-287,-35
460000,-724,732,16712,89,-319,-28
462000,-744,700,16596,123,-272,18
464000,-680,736,16652,114,-299,10
466000,-728,728,16664,100,-298,5
468000,-752,772,16600,103,-274,-12
470000,-760,752,16608,107,-319,1
472000,-800,736,16620,121,-295,-14
474000,-784,788,16636,106,-292,-9
476000,-796,744,16780,126,-290,-27
478000,-812,680,16628,105,-285,-26
480004,-752,752,16688,125,-281,-38
482000,-816,736,16732,128,-291,-4
484000,-756,736,16740,117,-286,2
486000,-808,720,16688,138,-290,-3
488000,-776,772,16784,100,-306,-5
490000,-760,780,16640,106,-296,-45
492000,-792,776,16604,112,-271,-3
494000,-776,668,16568,139,-289,-9
496000,-688,724,16572,114,-289,-3
498000,-744,712,16608,104,-290,-54
500000,-704,732,16676,110,-292,-29
502000,-768,736,16648,86,-325,-30
504004,-724,788,16556,94,-297,-32
506000,-720,776,16560,91,-226,-30
508000,-740,820,16644,110,-310,-19
510004,-776,772,16748,120,-276,4
512000,-784,816,16652,98,-298,-24
514000,-756,776,16640,93,-266,-1
516000,-808,744,16640,113,-308,-3
518000,-808,760,16532,118,-275,5
520000,-772,740,16564,121,-277,-13
522000,-748,720,16568,139,-336,10
524000,-784,676,16656,94,-326,-26
526000,-728,712,16652,126,-276,-16
528000,-672,684,16620,101,-309,-17
530000,-676,788,16636,96,-305,-14
532000,-764,724,16748,110,-293,-49
534000,-756,748,16720,96,-295,8
536000,-712,700,16700,113,-315,-5
538000,-804,736,16744,103,-259,-10
540004,-856,744,16668,112,-297,-25
542000,-804,724,16544,67,-270,1
544000,-744,700,16588,103,-276,-26
546000,-776,780,16584,130,-303,-3
548000,-732,776,16600,119,-307,-9
550004,-748,812,16664,124,-279,-10
552000,-704,784,16632,122,-265,-14
554000,-688,744,16640,103,-275,-3
556000,-756,740,16752,133,-317,-62
558000,-724,768,16612,111,-294,-11
560000,-804,792,16608,121,-266,-14
562000,-816,768,16528,106,-293,-19
564000,-788,768,16524,90,-312,1
566000,-832,784,16660,140,-277,-31
568004,-864,712,16684,147,-300,28
570000,-772,744,16688,105,-292,14
572000,-748,748,16784,120,-272,-22
574000,-720,664,16736,100,-281,5
576000,-780,728,16672,107,-290,7
578000,-772,788,16728,106,-257,-49
580000,-768,744,16720,83,-308,-20
582000,-772,744,16664,110,-305,-12
584000,-692,800,16604,133,-296,-32
586000,-800,776,16616,104,-281,14
588000,-836,632,16652,117,-299,-3
590000,-784,720,16616,119,-284,-14
592000,-808,640,16516,121,-273,-39
594000,-732,680,16628,108,-263,-9
596000,-720,668,16528,149,-290,2
598000,-700,676,16648,129,-320,-9
600000,-712,752,16692,101,-264,-33
602000,-724,792,16740,124,-282,11
604000,-748,776,16684,129,-274,-7
606000,-736,716,16748,120,-285,4
608004,-732,780,16764,114,-262,4
610000,-720,740,16704,91,-307,0
612000,-704,760,16564,94,-294,-21
614000,-744,736,16480,95,-245,-17
616000,-736,692,16620,131,-289,-31
618000,-668,720,16448,116,-308,13
620000,-720,784,16492,101,-250,13
622000,-808,768,16676,124,-289,14
624000,-796,752,16732,140,-283,-10
626000,-752,744,16812,113,-293,-14
628000,-788,772,16712,87,-285,7
630000,-756,796,16692,125,-297,-46
632000,-880,696,16648,113,-313,10
634000,-724,728,16632,134,-329,-10
636000,-768,768,16752,89,-257,-16
638000,-760,740,16528,148,-298,-41
640000,-744,716,16784,102,-313,-21
642000,-864,724,16688,115,-267,-29
644000,-772,764,16728,115,-296,11
646000,-752,704,16804,126,-282,-14
648000,-792,684,16688,101,-291,-1
650000,-748,756,16700,105,-303,-6
652000,-712,732,16640,123,-314,7
654000,-816,748,16656,91,-277,-47
656000,-744,804,16608,124,-289,-26
658000,-776,720,16612,119,-268,3
660000,-728,776,16648,125,-276,-34
662000,-816,748,16616,126,-302,-15
664004,-776,760,16572,104,-312,-23
666000,-804,796,16600,102,-275,-28
668004,-776,728,16708,106,-277,11
670000,-736,704,16616,124,-300,12
672000,-788,704,16700,111,-297,-17
674000,-788,728,16816,108,-267,-15
676000,-728,808,16724,123,-288,-29
678004,-800,712,16732,96,-339,-65
680000,-796,804,16684,119,-300,-36
682000,-776,756,16600,138,-281,20
684000,-772,724,16608,118,-294,-53
686000,-780,700,16524,94,-287,-9
688000,-792,720,16420,138,-280,-13
690000,-760,664,16596,131,-290,2
692000,-784,776,16656,114,-324,2
694000,-708,756,16732,102,-321,-8
696000,-684,712,16744,112,-290,-21
698000,-772,792,16704,94,-266,-29
700000,-744,724,16792,137,-319,-24
702000,-820,792,16652,97,-301,7
704000,-756,728,16596,124,-297,-20
706000,-752,760,16608,116,-303,-43
708000,-768,760,16660,105,-313,-3
710000,-732,692,16588,105,-306,9
712000,-716,668,16620,113,-318,-10
714000,-736,656,16660,98,-288,4
716000,-748,748,16652,120,-287,-27
718000,-744,772,16664,112,-289,-8
720000,-752,704,16704,135,-267,8
722000,-732,764,16716,93,-295,-41
724000,-784,824,16748,103,-330,5
726000,-752,752,16720,126,-288,-10
728000,-752,732,16756,111,-285,-8
730000,-768,748,16744,103,-297,-18
732000,-768,668,16732,116,-260,-33
734000,-796,732,16572,133,-314,-40
736000,-764,728,16664,134,-261,-19
738000,-768,736,16704,100,-280,9
740000,-776,740,16764,112,-257,-18
742000,-756,700,16764,143,-278,-18
744000,-736,728,16672,76,-322,-16
746000,-784,776,16656,124,-297,-8
748000,-756,764,16660,139,-261,-39
750000,-804,780,16684,102,-302,-24
752000,-744,700,16696,126,-316,27
754000,-772,728,16584,101,-261,-21
756000,-768,788,16520,130,-310,-3
758000,-684,752,16524,134,-310,-41
760000,-788,748,16564,101,-285,-39
762000,-708,776,16672,109,-323,-4
764000,-724,736,16696,91,-284,-25
766004,-712,772,16716,142,-307,6
768000,-816,724,16656,132,-328,-36
770000,-780,740,16656,82,-281,-37
772000,-696,756,16692,97,-283,-10
774000,-736,736,16776,109,-282,-13
776000,-788,756,16780,113,-286,-9
778000,-792,804,16700,114,-295,-36
780000,-840,764,16588,102,-292,-20
782000,-792,696,16620,108,-254,5
784000,-724,728,16576,115,-280,-7
786000,-796,712,16608,115,-300,-18
788000,-812,716,16624,116,-335,-31
790000,-772,768,16596,142,-276,-60
792000,-776,752,16648,96,-268,-3
794000,-756,760,16716,133,-279,15
796004,-772,744,16656,114,-254,-8
798000,-792,808,16628,93,-286,-13
800000,-756,760,16668,131,-308,5
802000,-784,768,16684,94,-272,-25
804000,-768,700,16696,136,-310,2
806000,-804,704,16580,111,-275,-38
808000,-708,696,16624,114,-263,10
810000,-800,704,16748,86,-275,-46
812000,-720,756,16648,94,-291,9
814000,-780,764,16728,110,-295,12
816000,-728,772,16676,85,-295,-32
818000,-816,784,16816,85,-283,-13
820000,-784,824,16740,114,-307,-22
822000,-756,776,16704,111,-312,-33
824000,-740,768,16680,107,-279,-21
826000,-736,744,16704,120,-298,-7
828000,-824,792,16520,115,-287,-34
830000,-732,764,16512,95,-285,-17
832000,-784,736,16524,135,-306,-14
834000,-748,788,16532,108,-310,-70
836000,-788,744,16696,129,-295,-11
838000,-720,724,16636,106,-270,1
840000,-780,772,16708,116,-296,-4
842000,-800,732,16688,130,-324,-29
844000,-796,776,16708,110,-302,-15
846000,-748,760,16664,113,-270,9
848000,-756,748,16616,77,-288,-31
850000,-732,736,16772,137,-292,-3
852000,-796,704,16672,120,-306,2
854000,-808,768,16712,136,-269,-23
856000,-788,708,16560,97,-292,-17
858000,-780,780,16612,136,-306,-32
860000,-780,744,16588,91,-280,-15
862000,-748,784,16684,101,-287,1
864004,-764,688,16604,124,-295,-5
866000,-796,784,16768,96,-316,-25
868004,-716,764,16664,108,-285,-6
870000,-748,784,16696,150,-282,-33
872004,-760,700,16624,87,-291,10
874000,-804,724,16672,129,-315,-12
876000,-716,728,16592,119,-313,-11
878000,-772,776,16588,125,-307,-3
880000,-788,780,16688,107,-298,-38
882000,-776,744,16732,98,-306,-24
884000,-784,756,16688,114,-261,-14
886000,-788,688,16692,125,-332,-22
888000,-760,748,16632,124,-301,9
890000,-768,844,16716,142,-300,-6
892000,-756,752,16736,88,-303,-41
894000,-736,796,16616,78,-268,-36
896000,-700,788,16572,114,-280,-16
898000,-772,808,16684,134,-266,1
900000,-692,732,16660,84,-276,-32
902000,-744,700,16636,104,-274,-7
904000,-724,772,16704,113,-282,-23
906000,-740,736,16600,122,-296,-22
908000,-772,720,16664,109,-260,-1
910000,-808,776,16676,74,-278,-17
912000,-748,760,16700,131,-282,-32
914000,-692,732,16776,136,-277,-8
916000,-748,728,16700,78,-279,3
918000,-776,752,16700,109,-295,-39
920004,-772,784,16680,134,-261,-44
922000,-732,716,16720,112,-300,-31
924004,-780,748,16504,85,-281,-48
926000,-784,768,16580,108,-305,-14
928000,-744,740,16696,96,-273,-11
930000,-772,720,16624,162,-279,-40
932000,-804,732,16640,124,-284,-11
934000,-756,784,16700,111,-298,-36
936000,-744,796,16624,141,-284,-17
938000,-752,700,16776,135,-282,-10
940000,-784,728,16732,106,-282,-4
942000,-744,808,16740,110,-299,-32
944000,-776,756,16684,120,-305,4
946000,-816,776,16632,98,-276,-38
948000,-748,760,16564,95,-278,-20
950000,-812,784,16676,86,-279,15
952000,-748,828,16660,70,-331,11
954000,-736,804,16820,142,-342,-36
956000,-744,724,16676,91,-258,-34
958000,-780,708,16732,124,-276,-52
960000,-752,692,16652,107,-291,5
962000,-712,716,16620,99,-309,3
964000,-700,676,16560,87,-290,-24
966000,-752,752,16620,117,-270,-20
968000,-816,744,16640,72,-281,17
970000,-824,776,16660,107,-280,-13
972000,-780,744,16692,103,-281,-50
974000,-764,728,16632,137,-248,-6
976000,-824,732,16596,114,-292,10
978000,-816,792,16732,77,-294,-25
980000,-788,692,16720,116,-278,4
982000,-720,744,16660,117,-290,-46
984000,-784,732,16704,102,-309,19
986000,-740,768,16720,112,-287,-16
988000,-704,796,16684,116,-303,-28
990000,-808,732,16732,141,-298,-21
992004,-736,732,16620,140,-249,-11
994004,-780,736,16576,136,-310,-41
996000,-808,728,16744,80,-286,-32
998000,-748,768,16664,115,-301,-11
1000004,-760,744,16676,101,-311,5
1002000,-740,716,16616,99,-286,-11
1004000,-748,716,16804,113,-298,0
1006000,-780,696,16760,148,-286,-31
1008000,-720,764,16632,130,-264,-28
1010000,-760,800,16708,95,-269,-11
1012000,-704,732,16636,102,-273,-16
1014000,-744,780,16516,112,-294,-18
1016000,-708,768,16680,101,-303,-34
1018000,-756,672,16720,93,-301,31
1020000,-732,720,16632,112,-287,-7
1022000,-740,732,16584,113,-293,-23
1024000,-756,772,16700,102,-246,20
1026000,-780,780,16700,107,-307,-2
1028000,-772,724,16644,115,-296,1
1030000,-688,728,16652,142,-257,-18
1032000,-768,716,16772,112,-290,-17
1034000,-772,656,16700,141,-282,-19
1036000,-800,716,16664,91,-306,5
1038000,-756,724,16584,105,-286,-27
1040000,-792,756,16736,97,-283,-27
1042000,-748,760,16704,125,-320,-9
1044000,-788,796,16580,110,-270,-12
1046000,-708,816,16632,138,-297,-12
1048004,-700,752,16764,125,-292,-16
1050000,-820,752,16732,119,-262,-34
1052004,-808,716,16736,91,-295,-12
1054004,-744,740,16688,117,-303,-45
1056000,-736,760,16580,107,-305,-11
1058000,-696,752,16620,89,-280,-2
1060004,-688,732,16580,142,-283,-72
1062000,-760,732,16624,111,-274,-24
1064000,-756,768,16584,132,-297,-32
1066000,-820,796,16700,137,-280,-13
1068000,-764,716,16596,99,-266,-32
1070000,-800,680,16628,118,-293,-10
1072000,-844,756,16768,125,-273,-31
1074000,-764,792,16588,92,-277,-31
1076000,-772,696,16632,111,-268,-27
1078000,-724,724,16688,130,-270,-25
1080000,-756,736,16760,113,-271,-20
1082000,-692,784,16660,108,-277,-44
1084000,-712,768,16756,116,-299,-7
1086000,-752,716,16748,129,-281,-8
1088000,-796,692,16736,103,-301,7
1090000,-736,788,16708,107,-277,-25
1092000,-764,696,16740,113,-301,-23
1094000,-760,704,16716,131,-292,-2
1096000,-796,736,16580,132,-322,-4
1098000,-760,772,16576,107,-300,-35
1100000,-760,776,16680,130,-289,-6
1102000,-760,796,16644,111,-313,-15
1104000,-800,688,16636,130,-282,-12
1106000,-772,776,16708,123,-256,-16
1108000,-736,804,16732,119,-273,-35
1110000,-748,756,16588,157,-299,1
1112000,-780,780,16596,99,-294,-1
1114000,-732,776,16624,88,-290,-48
1116000,-784,748,16600,131,-281,-10
1118000,-780,716,16588,85,-265,-11
1120000,-772,800,16596,111,-286,-30
1122000,-780,752,16644,104,-307,-1
1124000,-820,728,16736,108,-322,-30
1126000,-768,684,16620,119,-273,-9
1128000,-776,756,16612,131,-318,-9
1130000,-816,724,16672,101,-276,-42
1132000,-864,760,16696,108,-289,-2
1134000,-772,728,16680,118,-279,-32
1136000,-776,764,16616,103,-296,-25
1138000,-748,748,16660,160,-303,-36
1140000,-780,760,16680,129,-279,-27
1142000,-756,808,16572,112,-283,-10
1144004,-740,760,16796,143,-268,-18
1146000,-748,752,16696,121,-317,-22
1148000,-752,716,16648,99,-312,-2
1150004,-756,716,16596,93,-247,-22
1152000,-724,716,16668,113,-270,4
1154000,-748,728,16828,84,-280,5
1156000,-760,792,16676,97,-292,-22
1158000,-708,740,16660,116,-281,-7
1160000,-700,748,16668,128,-277,12
1162000,-772,720,16672,104,-308,-8
1164000,-804,784,16576,124,-285,-15
1166000,-704,724,16680,112,-277,-26
1168000,-708,792,16676,122,-269,-28
1170000,-816,704,16616,141,-269,-33
1172000,-740,716,16676,138,-290,-31
1174000,-788,720,16664,60,-288,-10
1176000,-780,732,16644,120,-296,-33
1178000,-772,664,16656,119,-301,-16
1180004,-728,744,16704,98,-272,-49
1182000,-724,728,16656,84,-287,-18
1184000,-716,780,16680,98,-279,-41
1186000,-764,764,16584,133,-278,-32
1188000,-760,832,16720,117,-307,-55
1190004,-788,772,16748,106,-288,-5
1192000,-720,792,16700,98,-287,-34
1194000,-688,748,16596,120,-284,-23
1196000,-772,792,16636,128,-332,-7
1198000,-724,724,16692,90,-314,-12
1200000,-760,768,16680,113,-257,-13
1202000,-748,716,16704,100,-325,-31
1204000,-692,768,16692,111,-306,5
1206000,-788,712,16712,135,-277,-59
1208000,-768,848,16708,106,-273,-36
1210000,-716,804,16724,109,-281,-7
1212000,-756,712,16724,146,-302,-32
1214000,-728,740,16564,150,-266,-39
1216000,-732,776,16592,89,-296,-11
1218000,-720,732,16648,119,-284,25
1220000,-712,764,16688,108,-294,-21
1222000,-696,752,16704,130,-292,-45
1224000,-688,784,16664,128,-271,-22
1226000,-728,764,16688,119,-306,-55
1228000,-784,816,16724,114,-265,-57
1230000,-768,752,16648,118,-285,-5
1232000,-724,716,16652,108,-271,-31
1234000,-772,748,16588,89,-265,-17
1236000,-716,748,16692,118,-274,-28
1238000,-820,736,16552,115,-283,-35
1240000,-756,760,16684,103,-275,-49
1242000,-724,720,16608,123,-305,17
1244000,-784,736,16640,123,-272,-23
1246000,-776,768,16572,87,-279,9
1248000,-684,684,16576,131,-285,-3
1250000,-788,756,16572,86,-303,-21
1252000,-760,680,16616,82,-265,-6
1254000,-796,828,16724,125,-297,-30
1256004,-748,756,16764,120,-297,-12
1258000,-820,772,16644,139,-271,-1
1260000,-784,772,16644,112,-294,-2
1262000,-800,776,16668,114,-260,-36
1264000,-720,752,16688,105,-273,-34
1266000,-752,744,16644,170,-307,-26
1268000,-716,800,16612,103,-293,-35
1270000,-804,704,16636,124,-306,-38
1272000,-740,756,16724,134,-277,-29
1274000,-744,808,16592,87,-281,-15
1276000,-808,724,16660,105,-302,15
1278000,-816,776,16640,97,-294,-32
1280000,-752,732,16748,111,-268,-4
1282000,-796,740,16628,128,-306,-54
1284000,-672,776,16608,89,-275,-18
1286000,-716,760,16680,81,-258,-8
1288000,-708,736,16656,115,-256,-6
1290000,-792,712,16720,94,-291,-20
1292000,-792,732,16720,94,-296,-24
1294000,-740,768,16712,125,-271,1
1296000,-812,776,16688,100,-283,-12
1298000,-732,700,16680,103,-299,15
1300000,-792,716,16656,124,-306,14
1302000,-772,692,16796,138,-268,-18
1304000,-748,716,16752,76,-311,4
1306000,-732,760,16640,127,-283,-29
1308004,-836,712,16640,113,-264,-22
1310000,-768,728,16584,104,-304,-50
1312000,-768,708,16492,121,-293,-32
1314000,-688,712,16548,108,-281,-38
1316004,-700,752,16664,127,-295,-16
1318000,-820,760,16708,101,-342,-14
1320000,-696,752,16576,110,-278,-25
1322000,-736,772,16628,87,-294,-30
1324000,-800,732,16724,103,-269,-5
1326000,-708,684,16756,126,-289,-9
1328000,-804,716,16700,112,-301,10
1330000,-740,788,16748,132,-291,-13
1332000,-740,804,16720,114,-267,-12
1334000,-796,768,16712,86,-294,-40
1336000,-840,724,16596,130,-280,-42
1338000,-672,752,16680,120,-282,-15
1340000,-756,704,16640,127,-267,-3
1342000,-740,740,16680,123,-297,-25
1344000,-756,728,16644,125,-315,-8
1346000,-672,736,16672,130,-305,-14
1348000,-752,752,16656,91,-278,-22
1350000,-736,752,16564,132,-249,-56
1352000,-660,732,16660,95,-297,6
1354000,-748,760,16560,121,-307,-35
1356000,-784,764,16648,129,-277,-48
1358000,-768,808,16688,112,-287,1
1360000,-752,756,16656,113,-305,5
1362000,-724,748,16604,89,-314,-4
1364000,-732,796,16576,141,-310,-13
1366000,-724,764,16652,156,-250,-29
1368000,-692,808,16832,119,-305,-39
1370000,-680,708,16668,111,-301,-31
1372000,-736,760,16776,124,-306,-23
1374000,-704,760,16720,116,-300,1
1376000,-760,772,16804,128,-286,3
1378000,-776,768,16696,130,-297,4
1380000,-804,732,16704,99,-294,-20
1382000,-784,816,16672,89,-268,-33
1384004,-760,756,16576,123,-262,-29
1386000,-796,744,16604,118,-248,-6
1388000,-784,696,16588,95,-306,22
1390000,-744,760,16612,106,-322,-20
1392000,-760,768,16516,109,-279,-24
1394000,-720,780,16624,116,-264,-14
1396000,-708,736,16676,90,-297,11
1398000,-792,784,16724,105,-298,-6
1400000,-816,756,16712,101,-285,-40
1402000,-772,712,16648,110,-286,-14
1404000,-744,712,16652,114,-249,-6
1406000,-780,824,16616,122,-309,-31
1408000,-716,708,16668,126,-292,6
1410000,-732,700,16480,117,-294,-2
1412000,-712,732,16692,74,-312,-25
1414000,-724,716,16652,115,-278,-16
1416000,-712,724,16736,133,-267,-7
1418000,-692,796,16716,123,-281,-22
1420000,-776,740,16812,137,-343,-26
1422000,-720,688,16664,112,-276,-17
1424000,-788,708,16704,131,-340,-25
1426000,-808,712,16760,109,-297,-17
1428000,-760,748,16548,133,-273,-11
1430000,-768,720,16692,80,-268,-14
1432000,-816,768,16708,107,-253,8
1434000,-804,748,16664,115,-276,5
1436004,-796,760,16796,120,-312,-21
1438000,-756,760,16668,116,-294,-10
1440000,-784,808,16612,101,-282,-40
1442000,-720,732,16536,92,-302,-8
1444000,-760,704,16652,127,-283,-19
1446004,-768,788,16724,106,-299,10
1448000,-716,768,16568,124,-295,-21
1450000,-752,732,16664,119,-294,-24
1452000,-812,732,16564,80,-283,-33
1454000,-732,760,16612,101,-266,-2
1456000,-748,752,16640,156,-285,-1
1458000,-744,728,16536,125,-317,9
1460000,-756,764,16680,113,-297,-31
1462000,-772,736,16624,94,-280,-38
1464004,-764,764,16692,118,-290,3
1466000,-736,764,16712,93,-298,-8
1468000,-748,748,16652,119,-337,-23
1470000,-784,712,16584,117,-298,-29
1472000,-788,720,16576,79,-273,-14
1474000,-784,772,16560,86,-295,-8
1476000,-768,724,16616,149,-275,-21
1478000,-792,752,16640,111,-265,14
1480000,-752,752,16664,132,-291,-32
1482000,-764,764,16668,129,-304,0
1484000,-772,732,16628,102,-264,16
1486000,-760,764,16680,134,-297,-44
1488000,-716,756,16560,119,-277,-1
1490000,-744,788,16636,114,-323,-18
1492000,-704,764,16684,126,-282,9
1494000,-700,724,16708,122,-321,-42
1496000,-736,768,16732,92,-273,-22
1498000,-696,724,16720,150,-283,-20
1500000,-772,780,16680,155,-289,-14
1502000,-748,736,16748,102,-277,0
1504004,-764,836,16652,85,-306,-29
1506000,-712,756,16628,137,-273,-21
1508000,-784,724,16620,146,-273,-25
1510000,-752,792,16700,106,-317,-19
1512000,-712,808,16732,120,-280,-46
1514000,-784,708,16652,118,-295,-4
1516000,-784,724,16620,122,-258,-21
1518000,-720,768,16692,78,-274,2
1520000,-800,756,16696,102,-295,-36
1522000,-776,756,16600,91,-296,-13
1524000,-844,768,16672,103,-278,-46
1526000,-752,744,16640,137,-301,2
1528000,-756,764,16712,127,-284,12
1530000,-748,700,16608,133,-288,-40
1532000,-704,788,16756,105,-250,-23
1534004,-788,712,16656,136,-323,-5
1536000,-748,764,16616,91,-313,-53
1538000,-672,788,16616,99,-282,-6
1540000,-808,692,16680,118,-296,-38
1542004,-780,664,16704,120,-278,-16
1544000,-696,772,16644,135,-322,-7
1546000,-728,808,16568,107,-295,0
1548000,-752,780,16644,86,-300,-13
1550000,-752,752,16644,136,-292,-3
1552000,-764,744,16708,111,-284,-41
1554000,-732,736,16636,111,-283,-17
1556000,-740,748,16628,111,-304,-29
1558000,-800,772,16680,118,-308,-9
1560004,-768,768,16684,100,-318,7
1562000,-728,752,16656,123,-277,-22
1564004,-744,760,16628,88,-286,-12
1566000,-704,744,16600,125,-271,-13
1568000,-752,708,16764,140,-277,15
1570000,-804,692,16732,103,-269,-8
1572004,-760,728,16640,122,-302,-21
1574000,-740,736,16652,117,-296,-35
1576000,-756,800,16680,151,-281,-9
1578000,-776,728,16648,108,-288,-11
1580000,-780,816,16620,115,-281,11
1582000,-796,828,16584,138,-296,-5
1584000,-796,672,16596,78,-320,1
1586000,-752,760,16700,115,-280,-17
1588000,-780,740,16660,121,-275,-31
1590000,-720,656,16592,119,-323,-14
1592000,-720,740,16636,153,-301,-16
1594000,-724,712,16692,127,-256,-5
1596000,-724,700,16628,122,-272,-39
1598000,-776,768,16680,135,-297,-17
1600000,-800,812,16684,137,-265,-21
1602000,-744,772,16720,83,-284,-7
1604000,-748,724,16656,110,-282,-3
1606000,-692,728,16624,141,-298,9
1608000,-736,776,16740,134,-256,-63
1610000,-712,724,16656,81,-288,-15
1612000,-708,716,16656,86,-277,-18
1614000,-788,728,16668,179,-300,-47
1616000,-788,728,16800,82,-282,-15
1618000,-764,760,16636,73,-269,8
1620000,-728,724,16608,132,-305,-12
1622000,-816,752,16712,96,-243,-24
1624000,-764,764,16688,124,-282,-38
1626000,-776,744,16728,99,-251,-30
1628000,-764,728,16748,99,-288,-29
1630000,-708,728,16632,131,-304,-80
1632000,-688,764,16740,82,-303,-7
1634000,-836,744,16644,120,-300,-4
1636000,-768,716,16820,124,-295,-9
1638000,-772,676,16760,116,-275,14
1640004,-756,712,16652,105,-298,0
1642000,-744,752,16668,116,-316,-3
1644000,-788,704,16656,93,-283,-6
1646000,-752,740,16660,100,-250,-43
1648000,-768,684,16776,95,-310,-26
1650000,-744,832,16636,107,-291,-13
1652000,-788,796,16676,136,-272,1
1654000,-796,756,16548,104,-319,-41
1656000,-696,728,16784,140,-317,-3
1658000,-720,808,16652,84,-265,-33
1660000,-768,776,16668,110,-260,-21
1662004,-764,812,16676,122,-285,9
1664000,-704,800,16720,127,-291,-21
1666000,-772,784,16688,115,-311,-9
1668000,-776,752,16608,92,-300,-27
1670000,-764,656,16636,109,-245,1
1672000,-764,784,16640,121,-276,-29
1674000,-744,692,16700,125,-289,-31
1676000,-804,756,16704,127,-328,-65
1678000,-804,736,16672,91,-286,-34
1680000,-792,816,16636,140,-308,-37
1682000,-784,720,16692,112,-332,-9
1684000,-672,748,16672,100,-306,-16
1686000,-768,736,16720,117,-295,-16
1688000,-836,792,16588,116,-274,-23
1690000,-720,760,16756,136,-305,-8
1692004,-776,772,16664,104,-291,-37
1694000,-688,712,16604,117,-288,-4
1696000,-740,752,16596,131,-303,14
1698000,-756,740,16680,109,-305,-25
1700000,-780,756,16588,124,-300,-21
1702004,-792,744,16672,90,-327,0
1704000,-740,784,16652,127,-271,14
1706000,-752,780,16640,127,-298,13
1708000,-756,716,16728,120,-287,-27
1710000,-824,768,16716,99,-271,-48
1712000,-712,768,16860,134,-288,-4
1714000,-748,708,16576,99,-303,-5
1716000,-776,716,16668,171,-323,-15
1718000,-752,720,16604,96,-284,-21
1720000,-712,728,16600,103,-265,-38
1722000,-748,716,16640,113,-304,-8
1724000,-820,728,16556,122,-286,-24
1726000,-724,672,16704,105,-297,-27
1728000,-768,796,16804,104,-304,-28
1730000,-748,788,16624,126,-327,-45
1732000,-752,728,16652,116,-308,-18
1734000,-752,764,16688,92,-272,-5
1736000,-788,828,16732,113,-289,-19
1738000,-816,764,16696,105,-304,-33
1740000,-720,768,16652,114,-278,5
1742000,-768,756,16680,114,-295,18
1744000,-836,708,16708,109,-299,-27
1746000,-768,724,16724,134,-281,-9
1748000,-760,732,16632,79,-278,-18
1750000,-724,732,16648,134,-295,-45
1752000,-724,728,16708,123,-285,-32
1754000,-760,712,16692,131,-285,34
1756000,-692,736,16624,123,-269,-44
1758000,-748,752,16660,117,-289,-39
1760000,-800,736,16676,130,-302,4
1762000,-760,724,16724,137,-324,-9
1764000,-820,708,16640,123,-299,-7
1766000,-768,712,16652,115,-271,-29
1768000,-784,780,16676,108,-292,-29
1770000,-732,784,16712,129,-314,-44
1772000,-776,708,16648,115,-263,8
1774000,-784,716,16636,116,-311,-48
1776000,-696,744,16736,97,-299,-12
1778000,-716,700,16624,105,-280,-24
1780000,-788,712,16628,91,-307,-46
1782000,-800,736,16636,127,-279,-1
1784000,-756,780,16744,112,-277,-5
1786000,-780,784,16548,126,-295,-20
1788000,-756,772,16580,120,-302,-12
1790004,-816,804,16680,102,-315,-5
1792000,-776,744,16628,122,-267,-12
1794000,-804,740,16672,118,-279,-42
1796000,-792,796,16620,121,-263,2
1798000,-752,800,16712,115,-294,-24
1800004,-756,796,16624,110,-304,-35
1802000,-748,736,16592,161,-334,-28
1804000,-704,680,16600,103,-311,-17
1806000,-780,724,16692,103,-313,-42
1808000,-688,712,16596,104,-293,-44
1810000,-764,800,16708,116,-300,-13
1812000,-776,752,16768,121,-300,-28
1814000,-732,756,16620,134,-290,-7
1816004,-752,776,16596,104,-281,-11
1818000,-772,748,16664,105,-315,-3
1820000,-712,736,16656,121,-298,-46
1822000,-764,760,16648,123,-292,-42
1824000,-736,732,16628,109,-313,-21
1826000,-700,736,16704,119,-258,-1
1828000,-748,760,16664,106,-269,-4
1830004,-704,680,16660,108,-291,-30
1832000,-820,740,16716,107,-277,-35
1834000,-808,720,16660,120,-293,-29
1836000,-740,752,16704,125,-296,-41
1838000,-788,736,16712,86,-305,-9
1840000,-748,800,16656,86,-280,-65
1842000,-724,804,16596,115,-306,2
1844000,-756,716,16652,87,-278,-22
1846000,-724,788,16704,102,-299,-4
1848000,-720,700,16692,135,-323,-25
1850000,-724,712,16756,125,-281,-47
1852000,-760,788,16664,97,-255,-35
1854000,-776,736,16612,103,-278,-34
1856000,-804,748,16752,124,-310,-33
1858000,-812,740,16588,149,-268,-1
1860000,-764,776,16728,130,-282,-5
1862000,-728,740,16576,90,-291,1
1864000,-792,716,16688,111,-251,-31
1866000,-740,716,16668,124,-341,-3
1868004,-740,772,16600,102,-309,-2
1870000,-796,720,16716,124,-259,-27
1872000,-732,676,16664,104,-300,-3
1874000,-748,800,16604,89,-278,-23
1876004,-764,748,16632,126,-249,-58
1878000,-752,744,16668,102,-319,-29
1880000,-784,760,16748,113,-283,-35
1882000,-744,732,16692,105,-293,4
1884000,-804,780,16708,120,-269,-17
1886000,-792,728,16584,84,-289,-13
1888000,-772,728,16680,146,-285,-33
1890000,-792,736,16680,89,-298,-32
1892000,-772,716,16660,80,-287,-38
1894000,-772,784,16724,123,-278,-54
1896004,-772,764,16620,86,-285,-5
1898000,-720,740,16740,86,-249,-13
1900000,-788,752,16708,107,-293,-27
1902000,-776,760,16556,138,-261,-21
1904000,-712,772,16664,120,-273,-21
1906000,-784,736,16692,115,-311,-10
1908000,-732,680,16624,114,-317,-24
1910004,-796,788,16660,124,-276,-31
1912000,-784,776,16724,127,-300,-4
1914000,-800,812,16748,109,-304,-20
1916000,-828,708,16580,97,-294,-36
1918004,-772,772,16664,104,-317,21
1920000,-780,728,16544,134,-284,-34
1922000,-836,752,16680,73,-271,-14
1924000,-772,752,16688,117,-271,-20
1926000,-804,720,16736,137,-275,-19
1928000,-724,800,16708,100,-327,-23
1930000,-784,752,16756,137,-288,-34
1932000,-824,704,16724,111,-294,3
1934000,-684,684,16624,132,-301,-21
1936000,-756,756,16660,118,-298,-28
1938000,-800,704,16676,103,-313,-23
1940000,-824,752,16624,92,-319,-26
1942000,-740,780,16664,108,-283,-21
1944000,-700,772,16548,125,-318,-19
1946000,-796,732,16612,117,-279,-43
1948004,-708,748,16676,118,-300,-22
1950000,-780,732,16632,128,-293,21
1952000,-744,744,16720,118,-282,-26
1954000,-760,776,16692,104,-273,-9
1956000,-796,736,16668,107,-287,-14
1958004,-776,768,16604,134,-273,-11
1960000,-772,740,16600,96,-280,-34
1962000,-768,744,16672,111,-284,-3
1964000,-752,744,16656,117,-293,-37
1966000,-708,736,16708,110,-280,-1
1968000,-824,736,16724,101,-269,-37
1970000,-724,736,16600,112,-317,-2
1972000,-748,744,16696,121,-317,-7
1974000,-748,768,16748,95,-280,-23
1976004,-788,748,16660,138,-281,-11
1978000,-772,760,16656,102,-339,-10
1980000,-744,804,16732,99,-248,-4
1982000,-776,744,16636,143,-293,0
1984000,-788,776,16688,114,-234,-9
1986004,-740,720,16604,101,-308,-19
1988000,-800,700,16652,107,-258,-12
1990000,-708,748,16616,130,-238,-17
1992000,-804,828,16624,126,-288,-48
1994000,-796,728,16628,89,-331,-36
1996004,-728,696,16664,102,-283,-20
1998000,-744,728,16584,157,-280,-30
2000000,-736,792,16668,138,-267,-36
2002000,-716,624,16708,112,-288,-37
2004004,-744,792,16684,122,-331,-37
2006000,-740,728,16664,80,-299,-20
2008000,-792,708,16644,119,-273,-20
2010000,-776,744,16548,95,-290,-33
2012000,-748,716,16636,76,-282,-32
2014000,-684,712,16660,76,-276,-18
2016000,-740,788,16740,105,-290,2
2018000,-728,740,16648,126,-302,15
2020000,-724,768,16736,105,-287,-31
2022000,-816,736,16648,99,-281,-7
2024004,-712,772,16672,115,-309,-5
2026000,-776,776,16784,125,-306,17
2028000,-772,744,16620,104,-292,-12
2030000,-752,720,16704,126,-283,-37
2032000,-756,784,16680,116,-320,-6
2034000,-752,784,16644,90,-319,-38
2036000,-792,796,16660,90,-301,-9
2038004,-720,756,16576,96,-310,-33
2040000,-752,788,16600,133,-305,-16
2042000,-712,680,16676,109,-319,9
2044000,-784,736,16588,111,-289,-24
2046004,-760,736,16636,124,-275,-20
2048000,-812,804,16664,105,-312,-27
2050000,-836,728,16712,112,-287,-23
2052000,-776,764,16632,98,-283,-10
2054004,-744,760,16648,108,-331,-17
2056000,-828,764,16600,111,-280,-51
2058000,-744,752,16612,111,-264,4
2060000,-808,724,16556,120,-306,-20
2062000,-760,792,16608,128,-265,-14
2064000,-768,656,16700,112,-321,-28
2066000,-776,756,16780,106,-299,-20
2068000,-688,776,16528,123,-264,-32
2070000,-848,780,16604,123,-296,-22
2072004,-704,756,16716,123,-313,-6
2074000,-832,764,16700,120,-280,-14
2076004,-728,732,16616,98,-289,-18
2078000,-816,744,16644,98,-298,-15
2080000,-752,768,16608,106,-280,-14
2082000,-752,792,16672,118,-271,-22
2084000,-792,768,16564,55,-325,-19
2086004,-732,792,16564,106,-287,-12
2088000,-760,732,16596,126,-292,-39
2090000,-764,696,16644,72,-305,14
2092000,-776,752,16700,134,-288,-39
2094000,-740,816,16568,91,-287,-13
2096000,-812,780,16632,101,-297,4
2098000,-744,652,16680,143,-267,-12
2100000,-808,744,16680,120,-311,-15
2102000,-736,744,16636,93,-294,20
2104000,-720,716,16668,104,-324,-28
2106000,-728,720,16668,91,-307,21
2108000,-752,740,16604,118,-287,3
2110000,-724,692,16636,104,-295,9
2112000,-796,724,16576,114,-301,-23
2114000,-744,740,16672,111,-282,-33
2116000,-768,772,16756,109,-289,-15
2118000,-696,700,16580,95,-302,-23
2120000,-752,736,16660,155,-286,-14
2122000,-732,768,16608,100,-301,14
2124004,-812,700,16696,126,-283,-13
2126000,-788,740,16788,93,-297,-49
2128000,-728,772,16616,85,-316,-29
2130000,-772,760,16704,123,-324,-10
2132004,-740,696,16700,146,-280,-53
2134000,-752,732,16648,121,-280,-22
2136000,-744,752,16676,129,-274,-18
2138000,-748,780,16684,112,-319,-6
2140000,-724,740,16668,131,-305,-23
2142000,-708,748,16628,117,-281,-44
2144000,-736,744,16760,104,-324,-11
2146000,-748,764,16720,120,-297,-6
2148000,-824,748,16636,134,-280,-33
2150000,-776,672,16684,111,-283,5
2152004,-748,708,16720,118,-274,-22
2154000,-760,768,16596,79,-273,-7
2156000,-828,692,16560,93,-294,-10
2158000,-728,720,16656,133,-308,2
2160000,-668,784,16636,110,-305,-26
2162000,-820,760,16652,117,-267,-37
2164000,-816,732,16652,94,-269,-6
2166004,-760,724,16716,133,-290,5
2168000,-788,768,16676,121,-272,-11
2170000,-752,740,16612,89,-279,-26
2172000,-808,700,16660,108,-293,-24
2174004,-744,748,16696,98,-284,-31
2176000,-676,764,16588,116,-288,7
2178000,-744,716,16680,124,-283,-16
2180000,-812,684,16624,105,-275,-18
2182000,-768,696,16696,91,-308,-7
2184000,-756,724,16688,125,-302,-8
2186000,-756,684,16728,110,-291,-12
2188000,-788,704,16688,124,-326,2
2190000,-788,776,16652,97,-281,-35
2192000,-760,736,16568,98,-312,-35
2194000,-716,728,16680,109,-251,0
2196000,-700,752,16704,92,-300,-23
2198000,-792,724,16560,163,-294,-2
2200000,-788,732,16776,99,-283,-2
2202000,-756,804,16676,108,-269,-17
2204004,-848,732,16628,97,-278,-13
2206000,-756,792,16596,95,-285,6
2208000,-764,760,16616,111,-280,-16
2210000,-748,776,16652,139,-281,-38
2212000,-728,756,16696,123,-283,8
2214004,-752,732,16688,99,-263,-23
2216000,-804,740,16640,110,-295,-17
2218000,-792,744,16696,106,-296,-2
2220000,-724,776,16796,93,-310,17
2222000,-772,768,16628,113,-304,-38
2224000,-824,732,16612,113,-281,7
2226000,-780,764,16684,120,-291,0
2228000,-764,760,16668,119,-308,-18
2230000,-760,728,16720,131,-243,-5
2232000,-748,816,16624,92,-299,-26
2234000,-756,652,16708,98,-291,-12
2236000,-676,788,16712,96,-280,9
2238000,-712,736,16684,143,-282,-2
2240000,-752,792,16656,123,-315,-41
2242000,-732,716,16580,75,-289,-12
2244000,-780,744,16748,97,-306,25
2246000,-712,748,16704,125,-287,-11
2248000,-684,800,16680,125,-298,-19
2250000,-720,736,16628,132,-292,-27
2252004,-768,784,16784,103,-270,-13
2254000,-760,784,16660,81,-295,-50
2256000,-764,684,16624,122,-282,-18
2258000,-720,776,16732,130,-295,24
2260000,-736,748,16708,82,-263,-34
2262000,-788,696,16648,87,-287,-21
2264000,-776,780,16664,159,-309,-19
2266000,-740,716,16732,139,-252,-6
2268000,-756,756,16712,157,-298,-20
2270000,-732,804,16684,139,-266,-8
2272000,-776,744,16772,113,-304,3
2274000,-788,736,16552,117,-286,-17
2276000,-804,748,16692,117,-281,5
2278000,-760,772,16548,75,-291,-21
2280004,-764,780,16512,138,-283,-30
2282000,-756,744,16604,91,-288,-12
2284000,-708,804,16592,128,-287,-53
2286000,-808,764,16620,113,-290,-15
2288000,-740,760,16588,116,-293,-13
2290000,-672,772,16684,127,-306,-33
2292000,-768,724,16620,118,-280,-19
2294000,-792,716,16556,147,-297,-14
2296000,-820,724,16624,64,-303,9
2298000,-776,744,16664,137,-283,4
2300000,-780,752,16716,135,-306,-46
2302000,-748,740,16632,109,-312,-22
2304000,-824,748,16676,127,-277,1
2306000,-748,728,16668,95,-292,-45
2308000,-732,688,16740,97,-292,-41
2310000,-724,728,16620,89,-310,0
2312000,-792,744,16516,143,-274,-22
2314000,-724,700,16804,137,-303,-33
2316000,-724,744,16716,119,-283,1
2318000,-752,748,16688,91,-329,-20
2320000,-752,788,16716,114,-272,-3
2322000,-824,716,16752,112,-326,-17
2324000,-816,788,16720,93,-268,-26
2326000,-760,784,16720,129,-316,-32
2328004,-752,748,16660,134,-274,-17
2330000,-688,816,16680,115,-266,-11
2332004,-760,732,16700,112,-309,-30
2334000,-796,788,16668,99,-313,-62
2336000,-784,736,16636,144,-284,-31
2338000,-744,784,16692,136,-290,-46
2340000,-796,752,16668,125,-267,-23
2342004,-888,780,16640,115,-296,-13
2344000,-764,768,16684,121,-284,12
2346000,-692,736,16712,90,-261,-13
2348000,-692,780,16688,153,-300,-35
2350000,-732,808,16652,88,-288,-13
2352000,-708,772,16636,131,-287,-19
2354000,-784,728,16736,113,-269,10
2356000,-780,732,16660,125,-299,-28
2358000,-808,764,16656,127,-294,-6
2360004,-756,768,16644,124,-311,8
2362000,-780,744,16664,115,-323,-16
2364000,-748,780,16612,121,-302,-24
2366000,-724,776,16632,85,-262,-38
2368000,-856,760,16656,78,-298,-14
2370000,-736,760,16684,110,-311,-20
2372000,-800,732,16576,115,-300,-46
2374000,-728,716,16560,115,-264,-7
2376000,-772,720,16644,132,-298,-8
2378000,-724,760,16672,112,-307,-16
2380004,-792,700,16720,122,-276,5
2382000,-772,736,16620,113,-321,-11
2384000,-732,752,16620,99,-301,-34
2386000,-724,768,16652,134,-292,-23
2388004,-792,748,16668,97,-288,-19
2390000,-728,708,16696,120,-291,-5
2392000,-748,744,16632,115,-291,-6
2394000,-808,692,16748,121,-298,-9
2396000,-796,836,16612,102,-294,2
2398000,-800,748,16648,124,-288,-35
2400000,-768,728,16648,94,-294,-3
2402000,-748,772,16764,91,-289,-34
2404000,-760,776,16660,126,-286,-1
2406000,-800,764,16620,101,-289,-15
2408004,-764,700,16736,103,-298,-20
2410000,-756,772,16588,91,-302,-19
2412000,-780,716,16708,119,-298,-5
2414000,-764,812,16672,87,-252,-29
2416000,-756,728,16708,81,-300,-20
2418000,-780,820,16676,108,-281,-27
2420000,-748,788,16740,115,-274,-13
2422000,-728,752,16684,104,-299,-37
2424000,-740,780,16748,124,-282,4
2426000,-728,672,16704,134,-303,-6
2428000,-748,736,16684,85,-302,-10
2430000,-804,752,16624,153,-299,-24
2432000,-732,756,16760,136,-277,-6
2434000,-868,792,16672,123,-288,-6
2436000,-744,724,16752,104,-265,-10
2438000,-744,756,16612,139,-287,-47
2440000,-804,808,16740,127,-303,-13
2442000,-760,808,16636,110,-254,-13
2444000,-740,784,16676,115,-280,-8
2446000,-704,712,16640,85,-305,-1
2448000,-756,792,16708,104,-285,-21
2450000,-660,736,16696,100,-284,0
2452000,-728,736,16640,132,-275,-23
2454000,-764,740,16656,122,-281,-46
2456004,-772,756,16688,79,-286,0
2458000,-704,724,16728,100,-290,-31
2460004,-712,728,16700,118,-276,-31
2462000,-736,772,16592,115,-278,4
2464000,-800,656,16648,77,-279,-8
2466000,-748,720,16712,133,-286,-14
2468000,-736,724,16720,110,-282,6
2470004,-668,740,16588,113,-263,-6
2472000,-772,744,16572,85,-272,-23
2474000,-704,680,16740,118,-273,4
2476000,-772,688,16624,140,-268,-16
2478000,-748,728,16568,130,-298,-15
2480000,-756,728,16628,85,-284,-16
2482000,-772,724,16636,110,-297,-31
2484000,-800,716,16584,92,-302,-19
2486000,-700,768,16716,111,-312,-65
2488004,-708,716,16660,104,-295,-29
2490000,-768,764,16628,118,-288,0
2492000,-748,776,16756,130,-313,-36
2494000,-780,700,16624,85,-282,4
2496000,-740,744,16516,122,-263,-20
2498000,-656,800,16688,123,-303,-33
2500000,-800,780,16604,75,-298,0
2502000,-772,720,16632,53,-302,-11
2504000,-780,724,16632,110,-294,9
2506000,-748,756,16584,139,-272,-3
2508004,-748,704,16580,145,-316,-24
2510000,-780,736,16628,112,-320,-48
2512000,-768,788,16604,116,-297,-2
2514000,-692,624,16724,122,-278,-37
2516004,-700,720,16616,109,-275,-38
2518000,-772,736,16632,128,-302,0
2520000,-776,748,16700,116,-293,-4
2522000,-780,748,16712,110,-266,-33
2524000,-704,748,16664,110,-285,-29
2526000,-784,716,16756,135,-309,3
2528000,-744,704,16628,97,-288,3
2530000,-768,736,16596,112,-273,-44
2532000,-752,728,16620,81,-327,-20
2534000,-748,720,16684,120,-298,-51
2536004,-816,728,16620,112,-289,13
2538000,-728,760,16596,110,-305,-28
2540000,-688,776,16656,110,-318,-40
2542000,-684,796,16612,146,-279,9
2544000,-756,732,16728,71,-275,-60
2546000,-748,772,16652,116,-287,-30
2548000,-696,764,16692,108,-295,5
2550004,-812,688,16692,108,-291,-21
2552000,-736,724,16700,106,-272,-45
2554000,-724,764,16632,112,-289,-29
2556000,-764,740,16680,135,-317,-7
2558004,-740,768,16708,114,-288,-23
2560000,-764,688,16556,89,-259,-13
2562000,-724,776,16712,91,-294,-31
2564000,-768,764,16596,139,-279,8
2566004,-752,704,16616,116,-301,-10
2568000,-732,712,16572,124,-288,-36
2570000,-800,780,16700,106,-297,-34
2572000,-776,724,16740,93,-302,-59
2574000,-736,788,16680,89,-320,-4
2576000,-728,752,16692,116,-281,-9
2578000,-740,692,16604,95,-284,-18
2580000,-800,744,16632,89,-295,-32
2582000,-804,780,16680,127,-295,-16
2584004,-744,772,16596,109,-256,-33
2586000,-740,768,16712,138,-302,-14
2588004,-724,732,16616,108,-288,-34
2590000,-740,716,16648,92,-282,-36
2592000,-744,772,16732,100,-287,-24
2594000,-780,760,16672,105,-298,-2
2596000,-644,780,16660,122,-275,-18
2598004,-768,776,16612,114,-277,4
2600000,-780,792,16704,99,-322,-32
2602000,-748,768,16720,127,-296,-9
2604000,-748,764,16588,107,-284,-23
2606000,-756,728,16656,144,-285,-38
2608000,-764,788,16644,82,-291,9
2610000,-792,744,16696,115,-274,-14
2612000,-844,720,16832,117,-283,13
2614000,-724,664,16804,126,-303,-10
2616000,-744,736,16636,128,-298,-1
2618000,-720,676,16688,118,-308,-22
2620000,-720,780,16764,85,-305,-24
2622000,-736,696,16704,115,-281,-8
2624000,-744,784,16728,129,-282,-18
2626000,-688,716,16724,125,-302,-13
2628000,-716,716,16704,69,-304,-32
2630000,-776,728,16612,130,-270,-15
2632000,-828,768,16644,126,-276,-17
2634000,-680,780,16716,107,-269,-5
2636000,-720,712,16684,127,-302,-50
2638000,-752,716,16592,86,-274,-45
2640000,-756,788,16672,124,-277,-22
2642000,-812,716,16680,118,-296,-7
2644000,-788,748,16704,136,-280,-22
2646000,-760,756,16556,120,-280,1
2648000,-772,772,16728,133,-299,-20
2650000,-808,732,16664,125,-265,-32
2652000,-804,728,16624,123,-279,-26
2654000,-704,808,16524,123,-294,-8
2656000,-708,716,16576,108,-257,-23
2658000,-700,744,16640,104,-277,-15
2660000,-712,740,16696,123,-292,-39
2662000,-740,788,16580,122,-289,-10
2664004,-776,784,16740,109,-283,0
2666000,-744,720,16736,103,-279,-34
2668004,-776,772,16652,109,-290,7
2670000,-692,708,16716,135,-300,-40
2672000,-812,800,16680,118,-296,-29
2674000,-764,736,16672,136,-299,-25
2676000,-732,792,16604,115,-264,-33
2678004,-740,756,16700,96,-293,-23
2680000,-792,688,16640,88,-293,-3
2682000,-760,696,16744,126,-289,-10
2684000,-764,748,16720,103,-294,-14
2686004,-828,768,16696,107,-311,-13
2688000,-784,740,16744,60,-332,6
2690000,-788,724,16704,116,-271,-83
2692000,-756,784,16692,85,-294,15
2694004,-756,744,16720,123,-289,-13
2696000,-716,752,16660,114,-274,-30
2698000,-772,772,16600,141,-230,3
2700000,-708,716,16564,120,-276,-58
2702000,-748,812,16656,138,-308,-1
2704000,-772,712,16684,106,-300,-23
2706000,-696,748,16708,145,-298,-28
2708000,-712,752,16648,103,-266,-17
2710000,-644,792,16628,117,-288,6
2712004,-752,732,16676,127,-283,-35
2714000,-812,812,16612,90,-286,-38
2716004,-788,772,16604,105,-275,-5
2718000,-812,716,16608,112,-283,11
2720000,-788,788,16640,137,-298,-10
2722000,-892,728,16672,88,-290,-4
2724000,-796,724,16632,114,-269,-30
2726004,-732,716,16680,135,-275,21
2728000,-780,764,16624,83,-299,-41
2730000,-772,720,16536,129,-309,-62
2732000,-760,792,16668,121,-292,-4
2734000,-780,756,16692,139,-314,-40
2736000,-772,752,16656,118,-290,-19
2738000,-712,724,16748,104,-256,-5
2740000,-736,716,16732,67,-310,-36
2742000,-708,748,16600,114,-288,-7
2744000,-720,732,16636,127,-318,-11
2746000,-788,716,16620,132,-318,-20
2748000,-756,732,16700,106,-263,-19
2750000,-756,748,16736,125,-280,3
2752000,-828,744,16648,138,-309,-10
2754000,-848,792,16588,110,-294,-20
2756000,-772,700,16572,136,-304,-34
2758000,-776,732,16664,114,-259,-13
2760000,-776,676,16608,124,-281,-24
2762000,-732,732,16664,119,-274,-37
2764000,-832,736,16644,85,-283,-20
2766000,-760,732,16660,103,-287,-43
2768000,-812,724,16632,119,-307,-18
2770000,-816,712,16636,89,-301,-41
2772000,-736,716,16748,119,-300,25
2774000,-704,696,16588,136,-304,-1
2776000,-792,736,16684,100,-322,-25
2778000,-720,736,16672,151,-268,8
2780000,-756,728,16712,106,-272,-38
2782000,-808,740,16652,136,-301,-31
2784000,-728,724,16656,108,-319,10
2786000,-784,700,16756,107,-294,26
2788000,-724,780,16696,95,-303,-31
2790000,-840,740,16744,127,-281,17
2792004,-816,732,16676,124,-285,-27
2794000,-724,716,16736,104,-308,12
2796004,-752,740,16672,67,-299,18
2798000,-752,792,16556,97,-292,-26
2800000,-716,720,16784,94,-317,-10
2802000,-788,788,16632,104,-307,-20
2804000,-840,820,16724,126,-285,-15
2806000,-804,680,16668,95,-307,-4
2808000,-820,756,16600,119,-262,-22
2810000,-776,776,16632,73,-303,-46
2812000,-808,768,16712,106,-269,-13
2814000,-780,736,16704,87,-294,-32
2816000,-748,728,16632,106,-300,-29
2818000,-732,772,16680,122,-295,-18
2820000,-776,712,16644,119,-311,-17
2822000,-772,732,16652,97,-267,-57
2824000,-808,724,16732,102,-292,-44
2826000,-812,744,16564,97,-289,-13
2828000,-760,760,16676,86,-284,-20
2830000,-752,756,16708,93,-289,-6
2832000,-720,712,16728,103,-268,-23
2834000,-768,748,16704,142,-329,-25
2836000,-724,816,16800,108,-303,-3
2838000,-824,768,16628,117,-272,34
2840004,-744,716,16704,103,-295,-37
2842000,-768,684,16708,119,-270,-27
2844004,-736,748,16620,107,-286,-1
2846000,-732,704,16704,99,-287,-19
2848000,-836,716,16704,124,-311,-29
2850000,-828,728,16672,122,-303,-14
2852000,-764,744,16740,59,-326,-22
2854004,-776,728,16668,106,-281,16
2856000,-724,732,16708,138,-281,-34
2858000,-780,732,16692,91,-274,-22
2860000,-760,720,16688,103,-297,-19
2862000,-752,688,16684,94,-292,-36
2864000,-776,728,16600,102,-304,11
2866000,-788,772,16616,77,-285,-16
2868000,-796,740,16708,101,-319,-31
2870000,-776,732,16672,140,-318,-24
2872000,-784,748,16660,141,-307,-24
2874000,-748,732,16648,108,-290,-21
2876000,-772,720,16596,98,-279,-32
2878000,-720,748,16660,97,-276,1
2880000,-792,740,16624,107,-307,-19
2882000,-748,772,16852,103,-269,-7
2884000,-776,744,16544,156,-305,-17
2886000,-764,760,16660,108,-269,-7
2888000,-864,752,16640,107,-325,3
2890000,-796,760,16684,98,-303,-34
2892000,-768,792,16616,145,-302,-12
2894000,-776,724,16624,98,-326,-5
2896000,-696,824,16672,127,-308,-12
2898000,-740,748,16656,115,-275,8
2900000,-796,708,16740,105,-266,-23
2902000,-764,752,16644,129,-282,-25
2904000,-836,752,16736,131,-262,11
2906000,-772,768,16680,117,-305,1
2908000,-756,700,16760,103,-278,0
2910000,-692,700,16696,138,-296,-16
2912000,-756,700,16756,103,-300,-54
2914000,-716,696,16720,111,-313,-4
2916000,-744,772,16724,106,-287,4
2918000,-764,748,16736,110,-290,-19
2920000,-780,740,16680,135,-270,-23
2922000,-756,780,16644,106,-303,-14
2924000,-776,756,16672,116,-269,-18
2926000,-760,724,16644,137,-272,-13
2928000,-772,808,16628,102,-286,2
2930000,-776,808,16624,135,-285,-10
2932000,-748,760,16580,102,-280,-45
2934000,-776,740,16556,131,-309,-15
2936000,-800,700,16632,106,-278,-27
2938000,-780,760,16636,115,-254,-20
2940000,-760,800,16588,92,-303,-4
2942004,-804,780,16688,112,-292,-25
2944000,-804,692,16548,105,-294,6
2946000,-808,776,16656,101,-326,13
2948000,-772,756,16748,125,-281,-44
2950004,-792,792,16648,88,-308,-11
2952000,-708,736,16744,108,-296,-15
2954000,-764,804,16672,121,-305,-2
2956000,-716,796,16692,149,-259,-11
2958000,-796,776,16700,111,-288,-19
2960000,-768,696,16768,99,-292,-53
2962000,-796,732,16668,127,-292,-52
2964000,-784,784,16536,111,-312,-29
2966000,-748,736,16660,145,-273,-33
2968004,-784,728,16676,126,-298,16
2970000,-784,728,16680,126,-318,5
2972004,-736,720,16704,86,-294,-15
2974000,-792,792,16640,93,-274,-46
2976000,-728,740,16712,111,-288,-14
2978000,-800,752,16740,112,-271,-24
2980004,-816,764,16680,100,-309,-8
2982000,-840,700,16676,81,-285,16
2984000,-804,756,16720,91,-283,-17
2986000,-756,700,16736,99,-313,-27
2988000,-804,768,16608,104,-317,-25
2990000,-740,708,16708,108,-303,-26
2992000,-812,708,16692,106,-303,9
2994000,-764,724,16604,125,-297,-37
2996000,-740,760,16668,103,-295,-33
2998000,-768,764,16636,103,-308,9
3000000,-748,788,16608,105,-256,-10
3002000,-792,724,16628,100,-289,-13
3004000,-768,792,16624,120,-304,-21
3006000,-804,672,16576,112,-280,-20
3008000,-816,820,16704,131,-287,-5
3010000,-780,732,16780,140,-317,-19
3012000,-800,752,16732,104,-291,23
3014000,-816,740,16712,117,-287,14
3016000,-800,796,16688,99,-283,-21
3018000,-796,720,16596,138,-326,-18
3020000,-800,700,16612,107,-303,-1
3022000,-792,708,16740,108,-311,-18
3024000,-740,752,16704,117,-298,-23
3026000,-664,796,16640,92,-287,-13
3028000,-768,756,16720,105,-296,-37
3030000,-820,760,16668,139,-255,-19
3032000,-720,772,16624,114,-301,7
3034000,-760,768,16620,142,-292,-25
3036000,-752,728,16656,100,-276,-57
3038000,-760,772,16740,90,-266,-22
3040000,-764,760,16524,122,-291,-2
3042000,-744,804,16764,113,-308,-29
3044000,-804,792,16604,96,-312,-22
3046000,-760,768,16720,92,-279,-29
3048000,-792,732,16684,113,-272,-2
3050000,-792,720,16676,92,-309,-10
3052000,-788,784,16692,107,-277,-13
3054000,-736,764,16584,130,-319,-46
3056000,-700,812,16660,111,-290,5
3058000,-784,804,16700,114,-313,-24
3060000,-776,664,16632,137,-314,-1
3062000,-736,816,16668,134,-290,-29
3064004,-812,736,16684,109,-280,-16
3066000,-808,736,16744,123,-289,-24
3068000,-780,760,16640,120,-294,-21
3070004,-744,696,16704,100,-301,-1
3072000,-720,712,16624,136,-303,-34
3074000,-688,704,16596,108,-307,-28
3076000,-772,744,16720,119,-266,-25
3078000,-748,780,16560,97,-266,-17
3080000,-780,720,16632,121,-328,-28
3082000,-736,780,16688,124,-292,-26
3084000,-728,692,16708,151,-273,-2
3086000,-740,816,16640,103,-317,-36
3088000,-724,744,16652,132,-282,-16
3090000,-796,780,16692,132,-262,-28
3092000,-748,748,16712,108,-299,-26
3094000,-784,764,16668,130,-283,-27
3096000,-784,692,16660,114,-304,-53
3098000,-784,744,16736,114,-282,-28
3100000,-776,716,16632,119,-321,-40
3102000,-732,732,16584,97,-289,-20
3104000,-700,732,16712,114,-281,-17
3106000,-756,684,16608,143,-302,-3
3108000,-800,720,16680,141,-285,-2
3110004,-772,776,16636,115,-306,-34
3112000,-660,760,16632,113,-299,-28
3114000,-724,800,16668,94,-272,10
3116000,-720,664,16696,113,-292,-41
3118000,-756,728,16636,91,-319,-22
3120000,-704,752,16616,112,-318,-25
3122000,-696,748,16640,127,-315,-60
3124000,-780,792,16668,113,-305,-9
3126000,-740,792,16680,83,-283,-27
3128004,-740,708,16620,105,-284,-28
3130000,-740,740,16644,79,-280,-14
3132000,-812,776,16616,102,-253,4
3134000,-784,772,16680,117,-290,-47
3136000,-780,748,16664,134,-300,-36
3138000,-724,792,16768,125,-273,-21
3140000,-764,784,16712,73,-301,-22
3142000,-772,720,16700,108,-298,8
3144000,-828,692,16600,114,-281,14
3146000,-724,700,16748,96,-283,-24
3148000,-692,732,16672,105,-318,-20
3150000,-740,728,16700,112,-292,-12
3152000,-752,764,16772,102,-257,-4
3154000,-808,808,16668,89,-300,-9
3156000,-732,748,16628,138,-307,-11
3158000,-756,700,16612,120,-305,-13
3160000,-752,732,16696,85,-294,-29
3162000,-748,728,16644,89,-285,-12
3164000,-684,780,16720,121,-277,-72
3166000,-772,724,16616,127,-260,-50
3168004,-692,712,16720,89,-307,-18
3170000,-764,720,16752,112,-303,-19
3172000,-720,724,16668,111,-286,-11
3174000,-772,720,16660,89,-296,-52
3176000,-672,772,16764,116,-279,14
3178000,-748,752,16624,134,-280,-33
3180000,-736,752,16656,125,-302,17
3182000,-716,696,16664,124,-274,-22
3184000,-796,792,16624,99,-300,-13
3186000,-752,712,16664,119,-282,-27
3188000,-756,796,16656,115,-272,-12
3190000,-808,752,16612,96,-296,-16
3192000,-736,712,16592,81,-277,-30
3194000,-764,740,16636,126,-300,-8
3196000,-804,772,16616,153,-273,-6
3198004,-780,796,16668,117,-319,-22
3200000,-796,700,16596,93,-308,-13
3202000,-736,768,16632,119,-294,9
3204000,-792,752,16680,116,-298,-41
3206004,-768,744,16620,126,-273,-7
3208000,-816,748,16692,113,-262,-7
3210000,-756,672,16644,123,-291,-22
3212000,-728,740,16704,108,-304,-29
3214000,-812,792,16696,96,-275,-19
3216000,-772,744,16620,117,-270,-20
3218000,-836,728,16708,118,-314,-21
3220000,-716,780,16664,150,-271,-12
3222000,-780,648,16612,126,-283,-37
3224000,-728,736,16712,106,-277,-16
3226000,-772,760,16644,104,-261,-36
3228000,-724,748,16704,115,-286,-24
3230000,-796,704,16612,116,-314,-3
3232000,-748,764,16572,92,-292,-21
3234000,-744,752,16672,125,-315,-37
3236000,-796,724,16624,112,-308,0
3238004,-784,712,16636,98,-303,-22
3240000,-740,788,16648,117,-279,-32
3242000,-776,728,16680,102,-295,-28
3244000,-792,756,16612,90,-290,-19
3246000,-748,760,16656,122,-280,-48
3248000,-736,800,16636,98,-293,-1
3250000,-808,768,16668,135,-304,-31
3252000,-752,712,16584,114,-282,-60
3254000,-776,780,16632,119,-302,-16
3256000,-828,720,16696,119,-254,-8
3258000,-788,704,16600,141,-291,-38
3260000,-792,688,16684,101,-315,12
3262000,-748,720,16696,136,-262,-27
3264000,-772,760,16548,102,-306,-46
3266000,-788,784,16624,90,-306,-34
3268000,-748,744,16652,116,-302,-26
3270000,-724,768,16724,63,-288,3
3272000,-768,788,16608,113,-274,-9
3274000,-784,744,16636,135,-300,-20
3276000,-748,680,16692,121,-287,-24
3278000,-772,708,16568,123,-324,-22
3280000,-756,740,16752,118,-308,-29
3282000,-704,724,16664,117,-281,-28
3284000,-756,724,16688,106,-303,-56
3286004,-776,756,16640,109,-286,1
3288000,-788,764,16572,113,-278,-38
3290000,-820,736,16652,117,-307,-42
3292000,-856,764,16672,117,-298,-43
3294000,-776,720,16724,110,-259,-1
3296004,-816,720,16672,120,-296,3
3298000,-768,688,16708,107,-279,-30
3300000,-792,700,16784,121,-274,-9
3302000,-744,788,16644,124,-260,-37
3304000,-780,796,16676,103,-302,-19
3306000,-764,796,16612,135,-287,-22
3308000,-836,760,16680,95,-290,-25
3310000,-768,732,16588,99,-294,-6
3312000,-768,748,16680,129,-304,-33
3314000,-768,716,16704,132,-270,6
3316000,-752,704,16640,138,-281,-43
3318000,-740,716,16676,74,-278,-30
3320000,-768,780,16596,135,-265,-21
3322000,-784,696,16640,100,-285,-39
3324000,-788,776,16652,104,-292,4
3326004,-804,704,16700,120,-300,12
3328000,-772,708,16680,140,-284,-18
3330000,-716,776,16596,113,-283,-23
3332000,-744,724,16564,93,-290,-6
3334004,-840,768,16648,117,-265,-21
3336000,-796,776,16672,158,-312,-22
3338000,-732,784,16620,116,-288,-25
3340000,-768,728,16716,106,-295,-28
3342000,-688,756,16696,135,-272,-19
3344000,-796,760,16692,95,-285,-13
3346000,-712,740,16704,128,-307,-37
3348000,-812,788,16752,108,-269,-6
3350000,-788,804,16676,69,-281,-13
3352000,-768,784,16720,150,-306,-7
3354000,-832,784,16672,115,-252,-21
3356004,-728,744,16684,140,-285,-7
3358000,-740,760,16680,103,-296,-46
3360000,-816,736,16768,107,-249,31
3362000,-808,752,16592,124,-296,-12
3364000,-720,772,16596,96,-315,-34
3366004,-716,732,16704,114,-294,28
3368000,-800,780,16764,111,-315,-21
3370000,-744,744,16688,112,-285,-21
3372000,-764,776,16668,112,-319,24
3374000,-764,796,16624,106,-297,-21
3376000,-736,784,16556,121,-265,-41
3378000,-776,724,16516,118,-278,-34
3380000,-724,760,16696,104,-268,-14
3382000,-776,764,16644,125,-296,-42
3384004,-792,700,16720,104,-298,-14
3386000,-792,704,16656,120,-278,-45
3388000,-792,736,16624,103,-285,-25
3390000,-764,724,16640,123,-275,-41
3392000,-772,764,16772,140,-281,-10
3394000,-764,752,16668,103,-305,-27
3396000,-788,724,16748,109,-276,-31
3398000,-756,704,16556,129,-265,-26
3400000,-724,768,16608,90,-285,-10
3402000,-776,720,16632,95,-272,11
3404000,-716,744,16544,126,-312,-35
3406000,-700,760,16640,132,-285,-11
3408000,-724,804,16736,106,-281,-18
3410000,-744,756,16652,87,-303,-39
3412000,-776,768,16732,139,-305,-39
3414000,-780,692,16720,102,-276,-7
3416000,-760,728,16716,114,-274,-5
3418000,-756,720,16576,92,-282,-60
3420000,-804,696,16668,84,-307,-1
3422000,-772,776,16680,109,-320,-44
3424000,-720,736,16596,125,-278,-16
3426000,-740,740,16680,116,-301,-25
3428000,-840,668,16684,124,-304,-35
3430000,-744,776,16572,118,-287,-8
3432004,-744,756,16600,82,-329,-21
3434000,-812,748,16748,117,-282,-5
3436000,-820,780,16672,109,-272,-12
3438000,-776,716,16628,138,-285,-1
3440000,-744,784,16656,115,-278,-42
3442000,-812,756,16664,98,-277,-18
3444000,-808,732,16628,90,-277,-42
3446000,-848,784,16552,120,-276,0
3448000,-772,724,16628,116,-288,-17
3450000,-752,748,16736,115,-314,-24
3452000,-744,756,16620,102,-321,-11
3454000,-748,720,16604,103,-324,2
3456000,-744,760,16752,106,-314,-11
3458000,-780,784,16760,114,-286,-37
3460000,-780,740,16656,123,-312,-16
3462000,-732,716,16692,96,-260,-14
3464000,-760,768,16608,102,-271,-17
3466000,-760,760,16656,119,-280,-41
3468000,-776,768,16728,90,-285,-1
3470000,-772,760,16616,103,-297,-16
3472000,-740,752,16716,120,-298,-36
3474000,-732,788,16680,111,-273,15
3476000,-724,780,16724,120,-291,-38
3478000,-740,696,16708,138,-311,-31
3480004,-784,740,16616,161,-302,-38
3482000,-792,776,16668,131,-304,-15
3484004,-784,704,16632,96,-281,-36
3486000,-728,768,16672,121,-302,-18
3488000,-832,764,16620,133,-289,15
3490000,-788,728,16636,111,-285,17
3492000,-752,720,16680,126,-295,2
3494004,-796,756,16668,146,-292,-14
3496000,-760,724,16604,125,-252,11
3498000,-752,720,16660,129,-309,10
3500000,-752,680,16700,120,-309,-39
3502000,-724,816,16636,118,-278,-28
3504000,-788,804,16712,114,-306,26
3506000,-744,788,16764,72,-300,16
3508000,-776,736,16652,131,-293,0
3510000,-748,752,16708,114,-310,-23
3512004,-784,788,16728,125,-300,-41
3514000,-776,724,16616,120,-292,-26
3516000,-732,748,16580,104,-320,-10
3518000,-752,724,16632,108,-263,3
3520000,-692,732,16568,88,-271,-21
3522000,-756,700,16600,115,-317,-50
3524000,-700,764,16672,99,-305,-3
3526000,-700,688,16772,110,-314,-5
3528000,-788,788,16596,110,-302,-8
3530000,-792,684,16676,104,-290,-18
3532000,-760,792,16668,121,-290,-14
3534000,-736,744,16712,120,-285,-24
3536000,-784,780,16592,113,-302,14
3538000,-796,776,16796,101,-322,-31
3540000,-804,756,16748,96,-271,-35
3542000,-768,752,16576,95,-267,-14
3544000,-780,752,16596,94,-272,-11
3546000,-728,764,16572,145,-294,-37
3548000,-752,756,16668,133,-293,3
3550000,-700,768,16764,147,-292,-26
3552000,-752,696,16632,128,-276,-2
3554000,-808,788,16624,80,-281,-25
3556000,-792,772,16684,144,-269,-32
3558000,-816,752,16656,106,-320,-19
3560004,-664,780,16752,134,-313,-9
3562000,-748,688,16672,116,-287,-49
3564000,-736,736,16680,120,-288,-4
3566000,-740,752,16624,119,-275,1
3568000,-740,728,16636,118,-284,-24
3570000,-764,752,16680,139,-277,2
3572000,-760,784,16664,108,-266,-21
3574000,-752,732,16644,134,-281,-19
3576000,-812,740,16616,115,-260,-48
3578000,-776,740,16656,118,-306,-4
3580000,-752,780,16712,97,-304,3
3582000,-748,752,16728,105,-277,-35
3584000,-756,756,16788,96,-270,-24
3586000,-748,772,16596,116,-243,-40
3588000,-696,736,16672,109,-309,-47
3590000,-768,744,16780,83,-319,-6
3592000,-812,708,16616,88,-249,-16
3594000,-764,724,16720,108,-295,-21
3596000,-720,780,16740,130,-303,-54
3598000,-760,728,16784,112,-286,-24
3600000,-752,768,16608,119,-251,-29
3602000,-808,776,16720,116,-294,-35
3604000,-876,764,16724,100,-285,-13
3606000,-720,788,16728,123,-294,-15
3608000,-824,812,16656,131,-286,-14
3610000,-796,736,16568,112,-267,-25
3612004,-768,732,16684,101,-296,-28
3614000,-756,736,16628,127,-308,-62
3616000,-732,756,16680,121,-276,-11
3618000,-780,736,16600,116,-284,-7
3620000,-776,708,16672,103,-322,-8
3622004,-808,772,16824,108,-306,-6
3624000,-752,748,16624,115,-286,-24
3626000,-784,740,16628,99,-291,-27
3628000,-784,708,16696,72,-283,-5
3630000,-812,732,16652,117,-287,-31
3632000,-752,808,16688,94,-280,-45
3634000,-792,804,16644,73,-302,-3
3636000,-768,756,16672,130,-265,-26
3638000,-720,768,16728,89,-305,-16
3640004,-768,780,16672,124,-286,-17
3642000,-792,832,16572,119,-245,-9
3644000,-748,720,16720,99,-298,-42
3646000,-812,732,16676,114,-305,-10
3648000,-760,720,16720,122,-288,-20
3650000,-744,728,16672,98,-274,-7
3652000,-772,712,16652,110,-301,4
3654000,-716,752,16600,81,-315,-3
3656000,-784,728,16620,87,-289,-18
3658000,-828,784,16700,104,-286,-14
3660004,-680,736,16604,113,-314,-5
3662000,-860,700,16672,125,-263,9
3664000,-788,792,16592,124,-292,-16
3666000,-744,752,16600,119,-263,16
3668004,-752,732,16692,123,-319,-36
3670000,-768,800,16692,135,-306,-5
3672000,-792,732,16804,101,-263,-30
3674000,-760,756,16608,125,-285,18
3676000,-776,748,16680,109,-296,0
3678000,-720,752,16492,95,-270,-18
3680000,-792,712,16736,100,-295,-29
3682000,-776,784,16648,130,-275,-16
3684000,-824,772,16656,134,-278,-27
3686000,-764,728,16616,108,-296,-26
3688004,-744,744,16572,120,-264,-16
3690000,-712,792,16708,102,-262,-18
3692000,-808,712,16656,100,-298,-26
3694000,-800,716,16724,131,-296,-41
3696000,-740,756,16732,83,-294,-23
3698000,-796,748,16596,96,-303,-53
3700000,-688,664,16708,89,-291,-46
3702004,-760,712,16708,109,-330,-25
3704000,-752,712,16720,131,-281,20
3706000,-780,780,16604,109,-310,-33
3708000,-784,796,16660,85,-237,-46
3710004,-716,744,16652,148,-310,3
3712000,-692,740,16648,92,-292,-14
3714000,-768,720,16660,103,-293,-9
3716000,-776,796,16652,144,-255,-15
3718004,-772,736,16696,149,-296,-17
3720000,-780,764,16728,87,-290,-18
3722000,-744,856,16548,114,-308,-19
3724000,-780,764,16704,84,-297,-13
3726000,-828,788,16688,115,-306,-1
3728000,-808,740,16692,114,-290,-27
3730000,-792,736,16640,110,-273,-46
3732000,-768,724,16580,125,-315,3
3734000,-800,752,16696,105,-288,-12
3736004,-736,716,16620,128,-263,-23
3738000,-744,700,16628,107,-272,-3
3740004,-732,764,16660,114,-295,-44
3742000,-792,768,16640,72,-304,-60
3744000,-796,788,16696,111,-297,-16
3746000,-756,736,16608,91,-298,2
3748004,-780,724,16564,113,-300,-48
3750000,-804,760,16708,115,-259,-19
3752000,-732,744,16676,99,-310,2
3754000,-752,788,16628,91,-317,0
3756000,-756,752,16648,117,-281,-20
3758000,-784,716,16712,125,-297,-21
3760000,-768,712,16584,116,-321,9
3762000,-764,748,16780,103,-306,-39
3764000,-740,736,16776,85,-299,-42
3766000,-808,772,16736,100,-304,28
3768000,-700,672,16624,102,-299,-10
3770000,-736,740,16616,120,-293,-29
3772000,-800,720,16652,63,-275,1
3774000,-788,744,16576,127,-304,-51
3776000,-788,676,16560,131,-282,-1
3778000,-836,756,16680,82,-292,-21
3780000,-732,684,16624,133,-312,-17
3782000,-816,720,16736,144,-291,-21
3784000,-776,768,16760,129,-284,-28
3786000,-824,740,16744,103,-302,-28
3788000,-756,732,16628,115,-266,-30
3790000,-836,748,16728,87,-286,-1
3792000,-768,744,16676,110,-281,-16
3794000,-760,676,16756,133,-309,16
3796000,-768,712,16700,123,-284,-31
3798000,-716,744,16660,141,-296,-14
3800000,-856,728,16640,138,-274,10
3802000,-780,764,16756,107,-297,-36
3804000,-732,776,16572,70,-274,-37
3806000,-776,704,16728,151,-299,-38
3808004,-756,728,16628,116,-291,-38
3810000,-844,736,16748,134,-290,-22
3812000,-768,804,16656,102,-282,-6
3814000,-728,764,16584,115,-276,-67
3816000,-744,752,16556,159,-295,-25
3818000,-768,712,16584,75,-265,-7
3820000,-784,820,16564,131,-296,-18
3822000,-788,716,16712,137,-285,2
3824000,-748,740,16704,110,-274,-43
3826000,-724,824,16736,106,-279,-14
3828000,-744,752,16732,124,-294,-9
3830000,-720,752,16656,89,-294,0
3832000,-740,756,16684,145,-288,-1
3834000,-792,696,16624,115,-305,-1
3836000,-824,672,16652,94,-302,-13
3838004,-816,720,16664,93,-277,-5
3840000,-784,720,16624,110,-287,-1
3842000,-748,704,16676,108,-279,-45
3844000,-724,704,16548,90,-284,-6
3846000,-788,760,16756,109,-276,-40
3848000,-732,700,16692,123,-306,-9
3850000,-784,768,16776,104,-289,-29
3852000,-792,804,16688,113,-275,-23
3854000,-796,736,16736,80,-263,-14
3856000,-812,808,16820,125,-284,-18
3858000,-724,740,16696,142,-294,6
3860000,-744,792,16724,126,-325,4
3862000,-736,736,16680,122,-277,-53
3864000,-780,740,16632,79,-308,-17
3866000,-700,728,16628,130,-295,-28
3868004,-788,740,16528,130,-272,-38
3870000,-748,736,16644,127,-340,7
3872000,-788,748,16644,130,-284,-35
3874000,-696,736,16720,91,-284,-10
3876000,-760,700,16660,93,-306,-27
3878004,-772,756,16684,113,-307,-39
3880000,-792,724,16656,120,-289,-53
3882000,-752,784,16624,111,-267,-18
3884000,-748,684,16552,113,-298,-34
3886000,-784,772,16764,123,-278,-10
3888000,-720,772,16620,116,-235,-11
3890000,-752,708,16724,95,-299,14
3892000,-780,688,16688,136,-287,-11
3894000,-736,820,16680,120,-282,-24
3896004,-840,756,16664,90,-309,-29
3898000,-700,716,16636,115,-268,13
3900000,-724,712,16752,98,-274,-7
3902000,-824,812,16648,117,-291,-8
3904000,-768,720,16684,133,-277,-49
3906000,-824,768,16676,129,-289,-9
3908000,-772,796,16632,130,-272,-12
3910000,-780,760,16660,121,-290,-4
3912000,-704,748,16696,118,-278,-19
3914000,-824,788,16732,99,-271,-24
3916000,-720,752,16696,111,-311,-19
3918000,-772,764,16608,147,-261,-9
3920000,-712,748,16608,125,-278,-8
3922000,-776,728,16664,129,-264,25
3924000,-704,740,16672,117,-289,-21
3926000,-756,744,16644,124,-284,-24
3928000,-784,776,16784,122,-282,-10
3930000,-740,756,16736,118,-288,14
3932000,-824,740,16624,125,-305,0
3934000,-788,728,16680,142,-295,-18
3936004,-792,772,16512,91,-281,-34
3938000,-720,768,16684,108,-299,-16
3940000,-720,764,16664,138,-286,-5
3942000,-784,704,16704,126,-274,-2
3944000,-824,696,16628,117,-286,-17
3946000,-728,776,16724,107,-303,-5
3948000,-776,776,16684,120,-291,-33
3950000,-804,792,16704,108,-284,-15
3952000,-760,724,16720,177,-313,-9
3954000,-736,792,16656,78,-295,-39
3956000,-736,776,16584,92,-280,1
3958000,-780,708,16544,101,-300,-10
3960000,-760,720,16628,119,-275,-7
3962000,-776,768,16692,148,-301,-18
3964000,-748,760,16560,134,-280,-25
3966004,-724,748,16640,95,-281,2
3968004,-748,740,16640,91,-307,-22
3970004,-804,768,16744,149,-291,-15
3972000,-780,752,16792,90,-300,-18
3974000,-748,760,16632,115,-288,0
3976000,-744,732,16664,95,-279,-25
3978000,-828,728,16624,131,-265,2
3980000,-708,812,16684,140,-311,-32
3982000,-732,736,16608,147,-275,-21
3984000,-716,748,16540,113,-271,-9
3986000,-764,792,16632,131,-298,-26
3988000,-728,736,16680,106,-295,3
3990000,-816,724,16652,127,-298,-6
3992004,-796,760,16568,138,-295,-11
3994000,-760,716,16724,102,-306,-27
3996004,-744,736,16780,113,-282,-42
3998000,-808,772,16660,124,-322,-31
4000000,-756,692,16736,152,-323,-5
4002000,-740,776,16708,115,-304,-23
4004004,-728,764,16704,119,-278,-29
4006000,-788,788,16648,116,-286,-14
4008000,-744,760,16536,74,-295,-44
4010000,-768,724,16668,114,-316,6
4012000,-776,732,16576,103,-277,-37
4014000,-684,768,16632,106,-291,-1
4016000,-752,748,16756,99,-284,-16
4018000,-768,776,16700,103,-280,-7
4020000,-800,732,16588,128,-277,-7
4022000,-704,704,16720,82,-290,-22
4024000,-716,700,16692,120,-299,-25
4026000,-808,780,16696,97,-300,-4
4028000,-788,728,16640,85,-295,2
4030000,-812,832,16724,125,-289,-16
4032004,-712,760,16620,81,-310,-28
4034000,-744,736,16584,111,-297,-14
4036000,-792,756,16684,139,-273,-28
4038004,-824,756,16672,119,-289,-37
4040000,-828,736,16724,110,-314,-19
4042000,-684,788,16552,105,-285,-29
4044000,-776,792,16620,114,-291,-13
4046000,-764,780,16596,138,-298,-28
4048000,-776,776,16716,116,-305,-39
4050000,-732,736,16628,121,-257,-26
4052000,-764,772,16728,126,-283,-11
4054000,-768,784,16712,125,-350,8
4056000,-804,732,16668,100,-249,-24
4058000,-812,744,16640,112,-287,-41
4060000,-748,740,16664,95,-318,-47
4062000,-780,748,16724,95,-302,-5
4064000,-740,708,16608,86,-307,-36
4066000,-796,788,16664,114,-294,-8
4068000,-748,708,16636,112,-294,-7
4070004,-756,788,16688,82,-295,-12
4072004,-756,732,16620,100,-302,-16
4074000,-828,748,16668,107,-309,-8
4076000,-788,732,16696,131,-264,-6
4078000,-836,764,16596,123,-285,-6
4080000,-812,796,16680,125,-279,-35
4082000,-836,740,16620,108,-308,7
4084000,-732,748,16656,121,-282,-19
4086000,-748,736,16804,96,-286,-19
4088000,-788,724,16664,119,-276,-10
4090000,-772,788,16616,130,-281,-64
4092000,-832,720,16708,89,-286,-39
4094000,-728,704,16608,136,-310,2
4096000,-824,764,16620,144,-283,-34
4098000,-768,768,16636,120,-297,-21
4100000,-792,776,16692,127,-277,-4
4102000,-804,708,16616,127,-255,-7
4104000,-788,784,16772,112,-318,8
4106000,-724,744,16704,101,-295,-14
4108000,-700,776,16644,96,-280,-14
4110000,-736,716,16740,99,-273,7
4112000,-776,728,16700,128,-253,-5
4114000,-796,764,16708,92,-271,-20
4116000,-760,716,16772,109,-296,-16
4118000,-728,704,16612,116,-299,-9
4120004,-700,848,16580,112,-315,4
4122000,-700,780,16620,98,-299,-30
4124004,-780,744,16640,124,-294,-48
4126000,-760,768,16560,138,-315,-7
4128000,-756,752,16640,134,-291,2
4130000,-764,768,16652,125,-295,-24
4132000,-788,732,16556,118,-302,-52
4134004,-716,764,16644,93,-273,-18
4136000,-840,688,16704,112,-291,-7
4138000,-748,740,16692,117,-322,-56
4140000,-744,720,16700,109,-282,-24
4142000,-756,636,16696,117,-289,-29
4144000,-708,760,16636,107,-296,12
4146000,-744,728,16740,119,-264,13
4148000,-728,728,16684,139,-288,-47
4150000,-768,744,16624,117,-297,-41
4152000,-744,716,16668,84,-280,27
4154000,-820,764,16608,133,-302,-5
4156000,-688,732,16664,107,-310,-29
4158000,-752,820,16736,119,-262,-14
4160000,-776,736,16632,92,-257,-15
4162000,-752,736,16588,146,-306,0
4164000,-764,792,16692,122,-278,-18
4166000,-800,756,16640,132,-278,3
4168000,-768,732,16668,116,-277,-8
4170000,-732,748,16672,107,-269,-59
4172000,-760,804,16724,80,-294,-6
4174000,-724,756,16640,126,-308,3
4176000,-764,780,16644,83,-297,8
4178000,-720,780,16680,120,-287,-2
4180000,-752,832,16716,89,-276,-29
4182000,-812,716,16708,112,-325,-31
4184000,-776,728,16656,134,-291,-29
4186000,-756,724,16632,91,-262,-1
4188000,-724,716,16640,120,-234,-11
4190000,-720,784,16696,91,-277,-19
4192000,-724,728,16648,148,-290,-19
4194000,-776,768,16572,103,-268,-30
4196000,-756,800,16640,138,-282,-33
4198000,-744,736,16684,116,-342,-3
4200004,-812,728,16688,134,-266,5
4202000,-748,764,16704,90,-285,-40
4204000,-760,736,16684,105,-310,-21
4206000,-800,648,16688,118,-291,-34
4208000,-756,768,16696,114,-274,-2
4210000,-784,780,16712,133,-312,-16
4212000,-756,780,16492,123,-304,-30
4214000,-772,688,16660,89,-285,1
4216000,-812,704,16648,123,-316,-51
4218000,-744,760,16572,99,-291,-25
4220000,-788,780,16688,105,-270,-14
4222000,-768,792,16644,100,-307,-31
4224000,-812,732,16572,98,-329,-28
4226000,-696,740,16624,98,-300,-28
4228000,-684,736,16788,114,-326,-14
4230000,-784,772,16796,140,-302,-25
4232000,-764,776,16652,126,-309,-2
4234000,-732,776,16672,116,-289,-14
4236000,-752,748,16724,122,-299,-2
4238000,-772,728,16704,119,-294,-8
4240000,-816,744,16652,143,-274,8
4242000,-752,736,16608,116,-266,-41
4244000,-776,760,16640,139,-298,-19
4246000,-772,664,16532,134,-290,-31
4248004,-752,720,16644,70,-281,-3
4250000,-764,756,16664,111,-271,7
4252004,-752,700,16596,132,-291,-12
4254000,-772,664,16708,143,-266,4
4256000,-752,772,16716,110,-268,-9
4258000,-764,688,16712,77,-250,3
4260000,-812,732,16764,134,-318,-21
4262004,-764,796,16688,78,-303,-2
4264000,-780,800,16708,112,-260,-40
4266000,-776,744,16604,101,-279,-28
4268000,-736,756,16732,110,-288,-38
4270000,-816,788,16636,109,-259,8
4272000,-764,800,16636,109,-280,-54
4274000,-708,752,16656,61,-318,-40
4276000,-736,764,16680,121,-270,-8
4278000,-744,752,16608,99,-303,-5
4280004,-696,756,16700,123,-275,18
4282000,-828,800,16640,82,-283,-37
4284000,-744,804,16712,112,-300,-1
4286000,-772,780,16616,135,-267,-22
4288000,-732,692,16588,99,-283,-35
4290000,-760,708,16592,104,-292,-7
4292000,-804,728,16712,107,-256,-6
4294000,-820,780,16652,102,-307,-12
4296000,-776,764,16648,90,-296,-23
4298000,-772,744,16480,108,-273,-8
4300004,-724,736,16548,122,-303,-18
4302000,-740,776,16644,134,-300,-17
4304000,-744,768,16764,118,-308,3
4306000,-768,724,16736,119,-317,-26
4308004,-744,780,16688,113,-251,-31
4310000,-788,740,16620,117,-307,4
4312000,-800,708,16692,79,-333,-31
4314000,-776,756,16620,140,-248,-11
4316000,-724,724,16636,117,-294,-23
4318000,-736,688,16664,134,-275,-57
4320000,-808,744,16688,122,-297,-28
4322000,-756,684,16656,137,-281,-17
4324000,-784,780,16788,116,-268,-6
4326000,-748,744,16692,128,-311,-3
4328004,-768,744,16660,122,-267,-9
4330000,-788,744,16640,115,-302,-17
4332000,-768,824,16648,122,-292,-16
4334000,-804,728,16568,142,-302,-7
4336000,-756,756,16740,111,-274,-12
4338000,-756,788,16696,100,-286,-14
4340000,-784,668,16700,140,-286,-23
4342000,-780,816,16628,96,-292,-39
4344000,-792,772,16680,92,-287,-22
4346000,-736,744,16616,141,-291,-5
4348000,-868,736,16628,136,-297,-11
4350004,-772,812,16756,121,-306,0
4352000,-748,728,16700,110,-292,0
4354000,-776,756,16664,80,-302,-10
4356000,-724,780,16656,108,-267,-7
4358000,-744,728,16672,102,-305,-36
4360000,-760,720,16660,107,-300,-13
4362000,-740,688,16696,123,-301,-30
4364000,-772,732,16612,120,-280,-17
4366000,-828,772,16608,118,-305,-42
4368000,-732,760,16620,114,-296,-28
4370000,-816,772,16648,101,-288,-19
4372000,-752,776,16612,109,-317,-11
4374000,-752,716,16672,98,-281,-19
4376000,-768,752,16736,122,-284,-22
4378000,-756,744,16644,99,-277,-25
4380004,-784,760,16660,117,-307,-20
4382000,-740,744,16588,118,-288,-25
4384000,-744,776,16716,100,-253,8
4386000,-808,760,16640,114,-305,-33
4388000,-788,776,16620,102,-284,-15
4390004,-788,720,16620,131,-271,-24
4392000,-744,744,16648,89,-265,-72
4394000,-740,744,16660,141,-304,-14
4396000,-756,728,16636,120,-295,-30
4398000,-776,736,16744,119,-270,3
4400000,-792,812,16736,108,-288,-9
4402000,-768,732,16604,111,-262,-12
4404000,-744,764,16612,138,-281,5
4406000,-760,760,16652,139,-310,5
4408004,-764,668,16692,81,-280,-22
4410000,-720,700,16708,89,-280,5
4412000,-768,768,16672,97,-320,-22
4414000,-756,712,16628,88,-285,9
4416000,-712,748,16620,125,-270,0
4418000,-780,708,16712,122,-290,-30
4420000,-748,772,16532,118,-330,-21
4422000,-776,716,16676,138,-290,-46
4424000,-828,688,16736,107,-271,-35
4426000,-760,716,16724,116,-276,1
4428000,-776,764,16724,82,-316,-17
4430000,-764,748,16812,134,-284,-40
4432000,-696,704,16696,121,-308,-45
4434000,-760,792,16740,124,-313,-21
4436000,-752,776,16752,121,-276,-10
4438000,-812,748,16588,130,-280,-30
4440000,-744,800,16720,107,-285,-1
4442000,-788,816,16644,110,-304,-20
4444000,-828,832,16680,145,-292,-20
4446000,-800,800,16688,126,-266,-1
4448004,-768,748,16708,92,-279,-16
4450000,-764,748,16684,116,-280,9
4452000,-764,728,16712,136,-266,-26
4454000,-708,756,16700,117,-265,-20
4456000,-732,792,16716,153,-282,-5
4458000,-728,784,16760,121,-284,5
4460000,-832,704,16744,95,-275,-15
4462000,-740,772,16628,107,-315,-21
4464000,-748,772,16568,161,-270,7
4466000,-756,780,16692,125,-265,-42
4468000,-768,760,16624,119,-286,-4
4470000,-768,752,16796,84,-301,-60
4472000,-740,720,16616,134,-271,-12
4474000,-740,728,16600,106,-338,-15
4476000,-768,672,16620,119,-304,-35
4478004,-752,708,16648,128,-283,-26
4480000,-776,704,16668,125,-328,35
4482000,-796,712,16640,90,-269,-12
4484000,-812,772,16632,114,-298,-40
4486000,-768,800,16608,140,-289,-13
4488000,-764,724,16680,120,-264,-45
4490000,-776,784,16580,115,-272,-41
4492000,-780,784,16672,118,-290,-5
4494000,-748,680,16696,97,-264,-45
4496000,-760,724,16644,136,-292,-10
4498000,-760,800,16668,117,-292,30
4500000,-672,752,16636,150,-283,-28
4502000,-752,784,16724,114,-281,-28
4504000,-720,736,16676,119,-296,-26
4506000,-796,776,16632,60,-288,-33
4508004,-712,732,16664,145,-263,8
4510000,-760,816,16616,116,-276,-47
4512000,-772,744,16660,104,-277,2
4514000,-760,788,16668,121,-269,-31
4516000,-772,792,16748,107,-315,-23
4518004,-760,756,16764,135,-302,8
4520000,-728,800,16772,112,-287,-27
4522000,-748,780,16820,142,-305,0
4524000,-724,760,16764,108,-281,-13
4526000,-720,736,16736,122,-293,-16
4528000,-764,736,16616,125,-295,-2
4530000,-752,792,16620,118,-282,-19
4532000,-740,780,16756,88,-250,-43
4534000,-788,724,16672,99,-281,-11
4536000,-792,768,16652,134,-275,-23
4538000,-800,748,16772,127,-273,-52
4540000,-752,740,16612,114,-273,-24
4542000,-724,724,16628,84,-280,-16
4544000,-788,776,16720,97,-277,-30
4546000,-732,748,16664,144,-321,-42
4548000,-760,768,16572,142,-301,15
4550000,-744,664,16572,107,-297,-29
4552000,-736,676,16628,90,-295,-10
4554000,-768,740,16776,121,-275,-26
4556000,-744,732,16656,142,-315,-6
4558000,-760,756,16612,127,-298,-14
4560000,-708,776,16664,108,-304,-2
4562000,-716,760,16684,158,-297,6
4564000,-796,780,16624,97,-301,-23
4566000,-772,724,16644,90,-282,-41
4568000,-736,724,16688,78,-305,15
4570000,-748,784,16672,118,-323,3
4572000,-824,796,16588,123,-283,-46
4574000,-812,728,16684,120,-267,3
4576000,-756,740,16664,92,-298,-17
4578000,-784,772,16644,135,-300,-41
4580000,-768,724,16680,107,-276,7
4582000,-764,684,16620,125,-285,-6
4584004,-756,716,16672,124,-316,-26
4586000,-760,736,16732,112,-294,17
4588000,-844,772,16696,153,-321,-6
4590000,-808,716,16668,102,-302,-27
4592000,-844,728,16624,107,-278,-18
4594000,-748,748,16664,111,-285,-32
4596000,-816,772,16564,89,-308,-31
4598000,-728,708,16652,115,-283,40
4600000,-764,748,16656,122,-289,-17
4602000,-768,700,16664,114,-280,-37
4604000,-768,736,16740,101,-306,2
4606000,-708,792,16684,123,-303,-25
4608000,-728,732,16712,135,-279,-1
4610000,-716,780,16772,115,-355,-32
4612000,-728,768,16644,144,-268,-9
4614000,-740,748,16664,91,-297,-16
4616000,-764,748,16728,159,-253,-1
4618000,-792,684,16684,123,-288,-5
4620000,-748,752,16732,122,-281,-20
4622000,-680,804,16620,79,-281,-54
4624000,-732,728,16644,120,-276,-47
4626000,-752,700,16604,123,-302,-31
4628000,-744,764,16620,116,-335,-24
4630000,-788,748,16676,115,-318,-22
4632004,-764,780,16580,104,-286,1
4634000,-828,708,16632,133,-280,-11
4636004,-796,780,16612,106,-299,-15
4638000,-740,704,16688,140,-294,-13
4640000,-724,760,16628,120,-288,-15
4642000,-788,728,16716,119,-259,-32
4644000,-736,732,16680,102,-297,-32
4646004,-756,792,16708,98,-259,-10
4648000,-728,732,16736,124,-299,5
4650000,-724,732,16716,91,-330,-20
4652000,-784,752,16732,119,-277,-18
4654000,-804,788,16700,99,-297,-22
4656000,-764,812,16660,63,-287,-25
4658000,-788,768,16708,134,-298,-15
4660000,-660,772,16648,109,-310,-23
4662000,-724,692,16692,108,-284,-57
4664000,-728,748,16624,128,-308,-8
4666000,-764,744,16584,131,-272,-21
4668000,-732,784,16680,133,-274,-12
4670000,-752,752,16700,110,-298,-35
4672000,-780,812,16716,52,-288,-30
4674000,-760,792,16688,116,-289,-8
4676000,-808,836,16564,134,-322,-25
4678000,-756,752,16656,95,-291,-17
4680000,-704,704,16664,124,-264,-44
4682000,-784,740,16580,137,-286,-17
4684000,-740,820,16628,108,-277,-1
4686000,-776,736,16644,121,-253,-10
4688000,-752,708,16612,115,-301,-16
4690000,-832,764,16564,99,-288,-1
4692000,-812,688,16588,117,-270,-10
4694000,-744,744,16808,127,-281,-16
4696000,-748,772,16712,101,-275,-14
4698000,-756,772,16660,114,-326,-9
4700000,-772,716,16648,107,-317,-20
4702000,-812,728,16672,92,-248,-5
4704000,-740,756,16656,122,-265,-32
4706000,-796,780,16736,108,-287,5
4708000,-848,772,16696,93,-318,2
4710000,-796,804,16672,100,-295,-37
4712000,-808,716,16704,101,-273,-23
4714004,-720,716,16580,111,-292,-6
4716000,-716,776,16732,114,-281,-34
4718000,-708,728,16636,119,-288,-5
4720000,-776,764,16652,125,-309,-41
4722000,-720,692,16640,110,-288,-31
4724000,-796,752,16644,139,-296,-32
4726000,-776,744,16764,117,-270,-22
4728000,-784,788,16604,118,-319,16
4730000,-780,692,16764,95,-270,-28
4732000,-760,772,16664,89,-300,-31
4734000,-800,680,16684,111,-283,24
4736000,-724,824,16664,125,-260,-5
4738000,-740,736,16664,81,-284,-7
4740000,-840,704,16664,133,-289,-26
4742000,-736,768,16672,102,-277,-12
4744000,-800,736,16616,125,-266,-32
4746000,-776,740,16676,96,-279,-18
4748000,-768,780,16688,106,-275,-20
4750000,-788,744,16616,137,-284,-36
4752000,-748,760,16660,118,-295,-2
4754000,-736,748,16724,105,-318,-2
4756000,-752,720,16680,140,-240,-36
4758000,-716,756,16668,106,-278,-26
4760004,-772,748,16660,123,-286,-2
4762000,-744,732,16780,124,-296,-22
4764004,-768,828,16640,126,-304,-42
4766000,-756,764,16624,122,-263,-51
4768000,-744,696,16588,96,-301,-45
4770000,-728,740,16616,140,-292,-19
4772000,-788,724,16652,91,-264,28
4774004,-724,748,16760,104,-292,-18
4776000,-716,768,16656,112,-313,-15
4778000,-736,756,16644,103,-288,-37
4780000,-784,732,16600,160,-295,9
4782000,-784,744,16636,109,-316,-17
4784000,-752,772,16740,108,-308,-19
4786000,-788,752,16736,119,-313,-8
4788000,-764,800,16580,127,-277,-26
4790000,-740,736,16524,114,-278,-14
4792000,-736,784,16712,120,-309,-19
4794000,-792,768,16652,95,-310,7
4796000,-784,776,16576,112,-264,-11
4798000,-756,752,16644,122,-294,-22
4800000,-748,748,16672,124,-276,29
4802000,-776,772,16752,93,-281,-25
4804000,-756,744,16708,115,-280,-25
4806000,-796,732,16724,104,-292,-28
4808000,-784,712,16584,134,-260,-24
4810000,-748,704,16668,71,-302,-58
4812000,-788,732,16644,110,-284,-13
4814000,-792,756,16604,122,-284,11
4816000,-820,780,16552,111,-286,-41
4818000,-796,780,16668,110,-292,-26
4820000,-756,752,16572,124,-269,-12
4822000,-740,740,16648,103,-277,-4
4824000,-756,780,16628,121,-316,-36
4826000,-752,700,16624,110,-309,-36
4828000,-748,764,16668,72,-301,-8
4830000,-788,736,16604,137,-260,-33
4832000,-712,752,16620,106,-297,-1
4834000,-764,704,16708,89,-281,-41
4836000,-796,748,16664,120,-292,-39
4838000,-720,800,16688,121,-300,-30
4840000,-748,796,16652,120,-291,43
4842000,-800,720,16580,107,-280,-38
4844000,-760,780,16720,137,-267,-21
4846000,-760,796,16700,140,-293,1
4848000,-756,740,16668,128,-276,-27
4850000,-772,720,16696,111,-318,-27
4852000,-764,752,16668,112,-269,-16
4854000,-756,736,16732,117,-265,14
4856000,-740,724,16668,118,-289,-22
4858000,-848,772,16644,113,-301,-16
4860000,-720,792,16656,97,-289,-9
4862004,-700,776,16604,137,-289,5
4864000,-800,680,16664,152,-307,10
4866000,-764,764,16632,107,-280,-25
4868000,-784,708,16736,107,-294,-10
4870000,-832,720,16624,86,-300,-11
4872000,-856,732,16652,123,-294,-33
4874000,-740,716,16672,126,-297,-22
4876000,-732,744,16740,120,-299,-33
4878000,-720,780,16652,109,-307,-15
4880000,-736,780,16616,91,-300,21
4882000,-744,760,16556,132,-304,-7
4884000,-736,744,16732,120,-332,-10
4886000,-748,708,16620,122,-298,-20
4888000,-732,688,16656,140,-267,1
4890000,-756,688,16640,112,-278,-22
4892004,-724,716,16656,128,-301,-42
4894000,-696,740,16640,107,-297,-9
4896000,-808,740,16660,163,-311,-31
4898000,-768,760,16680,132,-303,-25
4900000,-748,728,16656,108,-286,-32
4902000,-756,716,16624,127,-267,-41
4904000,-736,696,16628,126,-283,-11
4906000,-820,684,16740,108,-270,-6
4908000,-744,824,16696,158,-303,-43
4910000,-740,708,16616,108,-287,-19
4912000,-768,728,16624,122,-291,-7
4914000,-756,740,16656,141,-280,-26
4916000,-764,732,16696,173,-323,-12
4918000,-752,684,16660,93,-305,-35
4920000,-768,816,16748,129,-287,-30
4922000,-700,772,16576,119,-264,-20
4924000,-760,736,16652,105,-292,23
4926000,-744,748,16716,126,-289,-13
4928000,-776,768,16716,121,-290,-13
4930000,-812,776,16708,131,-309,-2
4932000,-760,712,16720,114,-294,-30
4934000,-796,780,16644,102,-304,-18
4936000,-784,692,16692,103,-327,-31
4938000,-780,736,16688,141,-290,-13
4940000,-752,768,16652,126,-281,-15
4942000,-772,772,16648,115,-279,-24
4944000,-792,740,16616,117,-283,-26
4946000,-800,776,16672,89,-275,-25
4948000,-796,752,16744,119,-300,9
4950000,-784,752,16672,136,-296,-9
4952000,-772,716,16656,113,-285,-33
4954000,-736,764,16564,113,-286,-15
4956000,-760,704,16792,121,-270,-8
4958000,-800,704,16688,125,-286,-20
4960004,-728,756,16604,130,-298,-31
4962004,-768,732,16712,122,-286,-8
4964000,-740,772,16576,130,-297,-3
4966000,-796,696,16668,128,-300,-25
4968004,-756,732,16636,135,-253,6
4970000,-772,740,16608,117,-293,14
4972000,-808,736,16700,140,-289,-11
4974000,-716,768,16604,125,-269,-29
4976000,-804,728,16724,103,-300,-13
4978000,-768,716,16748,100,-272,-12
4980000,-796,748,16648,120,-285,-40
4982000,-776,784,16660,125,-302,-31
4984000,-788,720,16664,102,-302,23
4986000,-700,732,16624,118,-284,-16
4988000,-760,796,16672,103,-265,-7
4990000,-736,768,16684,118,-290,-16
4992000,-752,792,16576,123,-324,-24
4994000,-784,820,16684,127,-285,-26
4996000,-708,768,16660,110,-294,-5
4998000,-840,764,16624,109,-279,-27
5000000,-756,712,16644,117,-281,-22
5002000,-796,716,16632,101,-325,-15
5004000,-780,744,16688,103,-310,20
5006000,-784,812,16676,110,-300,-30
5008000,-780,752,16744,78,-271,-6
5010000,-808,800,16660,104,-298,-31
5012000,-816,816,16736,108,-301,-16
5014000,-792,728,16648,106,-267,-6
5016004,-764,748,16772,108,-284,7
5018000,-760,780,16584,92,-303,-45
5020004,-724,720,16588,139,-299,-28
5022000,-788,768,16728,77,-278,3
5024000,-788,700,16592,106,-326,-43
5026000,-708,740,16704,134,-304,-9
5028000,-812,764,16664,118,-267,-12
5030004,-796,712,16656,95,-297,-33
5032000,-736,808,16620,146,-298,-27
5034000,-796,744,16668,118,-279,-26
5036000,-772,728,16672,139,-332,-29
5038000,-772,764,16640,133,-279,-37
5040000,-800,776,16716,39,-275,-6
5042000,-732,724,16616,118,-302,-9
5044000,-812,780,16652,128,-298,-16
5046000,-772,768,16616,111,-286,-13
5048004,-716,728,16724,118,-258,-7
5050000,-760,752,16636,125,-319,25
5052000,-768,712,16772,113,-302,-2
5054000,-756,732,16724,124,-287,-39
5056000,-768,764,16628,123,-300,-36
5058000,-768,860,16644,101,-290,-21
5060000,-820,784,16608,125,-285,-28
5062000,-752,756,16688,101,-273,-25
5064000,-768,788,16680,78,-266,-25
5066000,-800,704,16696,139,-292,14
5068000,-760,684,16632,106,-298,-22
5070000,-784,748,16688,112,-287,-11
5072000,-760,716,16592,135,-253,-19
5074000,-724,684,16528,97,-292,6
5076000,-732,716,16696,97,-284,-1
5078000,-720,772,16656,103,-300,-11
5080000,-736,768,16560,125,-292,-39
5082000,-760,776,16668,122,-310,-45
5084000,-732,784,16752,110,-306,-26
5086000,-748,808,16728,103,-287,3
5088000,-764,732,16604,128,-284,-4
5090000,-748,740,16712,90,-303,-49
5092000,-768,736,16624,99,-276,6
5094000,-716,732,16688,128,-306,-29
5096004,-740,792,16624,109,-283,-20
5098000,-796,764,16684,67,-293,-18
5100000,-720,740,16732,115,-256,-16
5102000,-792,788,16740,147,-323,-19
5104000,-768,756,16704,116,-295,-8
5106000,-684,728,16684,135,-282,-24
5108000,-812,688,16676,95,-305,-29
5110000,-776,776,16532,117,-288,7
5112000,-748,812,16676,119,-301,-2
5114000,-812,752,16628,99,-294,-39
5116000,-800,740,16624,77,-274,-19
5118000,-744,756,16704,117,-298,-50
5120000,-808,696,16784,138,-267,-27
5122000,-796,768,16668,124,-287,-9
5124000,-736,708,16580,133,-303,-19
5126000,-808,736,16708,96,-285,-9
5128000,-776,836,16652,124,-295,-23
5130000,-760,748,16640,107,-326,33
5132000,-716,704,16656,96,-324,-31
5134000,-796,736,16656,86,-285,-19
5136000,-724,668,16584,108,-299,-23
5138000,-772,728,16676,106,-291,-50
5140000,-796,728,16824,118,-276,-26
5142000,-716,736,16668,117,-293,-16
5144004,-772,808,16632,128,-279,-47
5146000,-704,744,16584,82,-293,-21
5148004,-724,844,16596,91,-283,-18
5150000,-836,748,16684,113,-293,-5
5152000,-824,712,16712,98,-279,-37
5154000,-820,728,16728,108,-303,-35
5156004,-732,792,16692,88,-306,-6
5158000,-784,800,16676,103,-281,-14
5160000,-812,684,16720,138,-305,-16
5162000,-748,812,16644,136,-328,-30
5164000,-788,728,16704,139,-291,15
5166000,-756,772,16704,86,-310,-27
5168000,-776,768,16668,153,-284,-41
5170000,-756,740,16632,146,-284,-51
5172000,-720,780,16696,81,-283,22
5174000,-792,744,16636,113,-273,-26
5176000,-764,800,16612,114,-263,-21
5178000,-788,804,16644,86,-325,13
5180000,-772,784,16676,89,-265,2
5182000,-788,764,16660,125,-293,2
5184000,-820,744,16664,135,-287,1
5186000,-776,764,16608,120,-280,-9
5188000,-756,868,16612,112,-282,-34
5190000,-820,724,16680,133,-289,10
5192000,-760,756,16632,131,-278,-23
5194000,-760,788,16620,102,-278,-26
5196000,-784,712,16612,99,-301,3
5198000,-696,720,16700,133,-289,-17
5200000,-812,712,16704,80,-271,-25
5202000,-800,756,16512,90,-309,-32
5204000,-728,708,16620,114,-275,-51
5206000,-756,808,16676,97,-260,-17
5208000,-764,756,16704,117,-273,-9
5210000,-732,728,16604,112,-283,-32
5212000,-696,800,16632,139,-280,-1
5214000,-732,752,16708,100,-302,-13
5216000,-720,804,16728,130,-273,-23
5218000,-740,748,16664,109,-275,1
5220000,-748,732,16592,76,-297,-16
5222000,-812,720,16528,142,-243,0
5224004,-808,720,16632,105,-279,-17
5226000,-836,712,16600,113,-313,-12
5228000,-796,696,16716,88,-299,-19
5230000,-808,680,16740,96,-309,-6
5232000,-800,748,16716,127,-294,-11
5234000,-800,796,16724,94,-283,7
5236000,-820,792,16644,87,-290,-15
5238000,-808,764,16688,148,-265,-33
5240000,-732,740,16664,117,-290,-6
5242000,-772,772,16772,106,-299,6
5244000,-700,784,16708,114,-277,0
5246000,-772,732,16684,154,-268,0
5248000,-736,732,16696,118,-321,-36
5250000,-728,788,16672,104,-256,-12
5252000,-796,668,16504,118,-306,-18
5254000,-748,764,16684,126,-313,-4
5256000,-708,740,16612,99,-294,-9
5258000,-708,712,16604,87,-308,17
5260000,-752,760,16652,127,-309,1
5262000,-744,732,16700,110,-277,-38
5264000,-732,768,16764,126,-283,-4
5266000,-756,740,16640,141,-286,-35
5268000,-700,768,16724,102,-315,15
5270000,-736,772,16688,128,-283,-20
5272000,-764,740,16612,113,-277,-18
5274000,-752,708,16688,130,-287,-30
5276004,-784,704,16660,109,-251,6
5278000,-812,756,16604,88,-317,-7
5280000,-796,756,16748,111,-290,22
5282000,-792,740,16660,94,-317,-16
5284000,-820,756,16536,133,-285,-16
5286004,-748,696,16728,88,-289,-8
5288000,-792,732,16756,140,-323,-21
5290000,-768,764,16760,99,-279,-15
5292000,-772,776,16568,124,-323,-6
5294000,-772,732,16664,82,-254,-9
5296000,-808,796,16712,137,-271,3
5298000,-780,724,16612,116,-304,-11
5300000,-768,764,16680,114,-306,-20
5302000,-788,776,16652,113,-294,-24
5304000,-764,736,16684,80,-286,-22
5306000,-736,748,16712,125,-287,-43
5308000,-744,784,16700,142,-309,-16
5310000,-732,704,16624,85,-302,-30
5312000,-792,736,16736,119,-283,-7
5314000,-720,716,16692,124,-269,-17
5316000,-784,756,16628,83,-312,-12
5318000,-752,728,16704,106,-294,-3
5320000,-796,748,16672,113,-306,-16
5322000,-808,760,16740,87,-286,-20
5324000,-732,720,16672,134,-301,-6
5326000,-736,736,16720,114,-310,-31
5328000,-764,700,16620,124,-289,-22
5330000,-768,788,16700,121,-271,-20
5332000,-748,748,16772,117,-291,-16
5334000,-812,704,16660,133,-302,-38
5336000,-772,760,16716,112,-273,-9
5338000,-768,744,16684,125,-285,4
5340000,-764,812,16696,88,-273,-33
5342000,-800,724,16584,87,-282,-18
5344000,-840,748,16668,121,-303,-9
5346000,-748,732,16588,102,-289,-21
5348000,-784,776,16680,135,-295,14
5350000,-720,780,16596,70,-300,-16
5352004,-808,720,16660,112,-298,1
5354000,-724,728,16612,129,-323,-56
5356000,-812,712,16660,67,-316,7
5358000,-748,716,16648,138,-264,-10
5360000,-724,736,16564,112,-285,-9
5362000,-724,824,16668,72,-296,-21
5364000,-776,764,16624,136,-296,-36
5366000,-700,824,16588,86,-302,-5
5368000,-732,764,16736,107,-309,-23
5370000,-732,732,16656,115,-286,-24
5372000,-808,772,16664,120,-283,-20
5374000,-736,688,16700,134,-298,-37
5376000,-740,748,16616,93,-300,-64
5378000,-796,692,16672,92,-287,-38
5380000,-736,712,16548,119,-278,-3
5382000,-724,740,16736,113,-288,-27
5384000,-780,744,16700,102,-270,-15
5386000,-812,696,16744,108,-294,-12
5388000,-776,772,16636,147,-288,-19
5390000,-740,720,16708,106,-289,-43
5392000,-736,816,16656,103,-326,-38
5394000,-712,736,16632,125,-307,8
5396000,-780,780,16664,111,-277,-22
5398000,-800,760,16688,101,-299,-18
5400004,-784,780,16684,112,-266,-32
5402000,-780,744,16624,93,-267,-46
5404004,-768,700,16564,126,-271,-22
5406000,-736,744,16596,115,-278,-15
5408000,-740,760,16696,118,-286,-32
5410000,-800,740,16656,102,-305,-3
5412000,-732,720,16608,122,-310,-18
5414004,-812,768,16708,109,-295,-29
5416000,-764,768,16600,97,-278,-21
5418000,-764,784,16672,115,-285,-4
5420000,-788,672,16736,88,-296,-12
5422000,-724,700,16764,139,-290,-43
5424000,-776,760,16644,144,-289,-18
5426000,-708,732,16656,119,-273,-56
5428000,-772,748,16808,117,-302,1
5430000,-760,784,16736,132,-276,-17
5432000,-668,748,16648,101,-323,-38
5434000,-764,728,16692,127,-278,-5
5436000,-732,764,16604,120,-263,18
5438000,-792,716,16736,119,-282,-35
5440000,-728,692,16716,121,-280,-27
5442000,-748,760,16696,112,-277,-24
5444000,-756,728,16736,117,-270,-13
5446000,-756,788,16660,112,-297,-33
5448000,-700,664,16688,131,-271,-17
5450000,-772,732,16624,124,-266,-31
5452000,-720,676,16640,131,-306,-49
5454000,-732,724,16588,110,-280,4
5456000,-780,748,16548,94,-267,2
5458000,-744,712,16528,113,-274,-19
5460000,-728,756,16648,123,-274,-64
5462000,-792,736,16700,137,-277,-16
5464000,-784,764,16644,84,-291,-21
5466000,-748,768,16632,111,-314,-40
5468000,-740,732,16704,108,-290,-8
5470000,-828,776,16696,104,-288,22
5472000,-840,760,16784,125,-296,-29
5474000,-712,780,16668,117,-261,14
5476000,-764,756,16624,107,-288,-10
5478000,-760,744,16660,121,-264,-6
5480004,-740,688,16608,106,-275,-26
5482000,-768,728,16564,105,-335,-41
5484004,-772,752,16696,115,-322,-4
5486000,-736,676,16644,130,-275,2
5488000,-732,680,16656,95,-260,-38
5490000,-716,752,16740,109,-266,-5
5492000,-760,736,16716,134,-315,8
5494000,-752,772,16656,103,-265,-39
5496000,-760,792,16744,111,-320,-13
5498000,-800,768,16632,88,-331,3
5500000,-752,720,16632,100,-305,-24
5502000,-816,744,16596,109,-258,23
5504000,-764,736,16736,127,-282,-17
5506000,-804,736,16676,125,-251,-5
5508000,-724,732,16744,108,-303,15
5510000,-756,712,16644,104,-314,-30
5512000,-764,708,16600,100,-292,-5
5514000,-756,740,16736,108,-246,-14
5516000,-756,716,16716,65,-283,-30
5518000,-760,736,16664,116,-296,3
5520004,-788,800,16720,118,-295,-31
5522000,-756,760,16632,124,-305,-42
5524000,-708,736,16652,98,-261,8
5526000,-756,724,16620,101,-324,-29
5528004,-776,764,16672,129,-285,9
5530000,-768,796,16624,117,-246,2
5532004,-740,780,16632,105,-304,-22
5534000,-740,716,16596,115,-287,-10
5536000,-804,788,16668,125,-340,-17
5538000,-732,744,16564,97,-331,-19
5540000,-756,788,16676,131,-276,6
5542004,-716,784,16628,123,-283,-16
5544000,-780,688,16652,120,-298,-19
5546000,-776,704,16640,110,-287,-32
5548000,-796,748,16596,128,-286,-30
5550000,-792,740,16580,120,-273,-12
5552000,-748,768,16708,131,-286,-29
5554000,-696,752,16616,90,-325,-7
5556000,-660,760,16576,100,-286,-21
5558000,-752,772,16612,87,-304,-16
5560000,-800,800,16560,136,-318,-25
5562000,-748,756,16724,96,-294,-17
5564000,-828,764,16652,87,-309,3
5566000,-748,716,16696,145,-304,-1
5568000,-772,820,16572,77,-292,-11
5570000,-796,680,16700,101,-292,-6
5572000,-708,712,16636,114,-323,-16
5574000,-760,752,16636,105,-262,-27
5576000,-748,732,16788,93,-322,-21
5578000,-740,740,16620,93,-273,14
5580000,-756,748,16624,110,-260,-11
5582000,-756,680,16632,115,-299,-41
5584000,-764,752,16668,89,-297,-37
5586000,-756,780,16640,131,-284,-14
5588004,-732,716,16688,146,-282,-30
5590000,-752,728,16632,107,-301,-16
5592000,-728,748,16632,125,-275,19
5594000,-748,716,16724,164,-292,-39
5596000,-760,772,16604,119,-281,-37
5598000,-756,720,16668,98,-304,-12
5600000,-668,752,16640,133,-295,-11
5602000,-760,760,16636,93,-285,-14
5604000,-780,712,16748,124,-269,-34
5606000,-776,732,16632,123,-283,15
5608004,-788,744,16656,114,-290,18
5610000,-720,804,16680,128,-263,-33
5612000,-748,744,16612,107,-293,-22
5614000,-736,744,16536,104,-276,18
5616000,-696,804,16676,124,-275,-13
5618000,-724,792,16716,139,-305,-8
5620000,-744,792,16760,83,-288,-27
5622000,-788,708,16732,109,-302,-48
5624000,-728,756,16560,121,-286,-2
5626000,-784,728,16656,103,-318,-46
5628000,-728,672,16756,125,-307,-29
5630004,-728,724,16600,97,-286,-24
5632000,-764,800,16584,130,-328,-4
5634000,-748,692,16740,132,-279,-5
5636000,-740,784,16688,138,-276,-33
5638000,-768,760,16600,104,-311,1
5640000,-788,756,16596,59,-326,12
5642004,-772,740,16652,132,-294,-22
5644000,-792,776,16672,118,-291,-48
5646000,-752,748,16656,127,-275,-8
5648000,-796,680,16612,101,-325,-3
5650000,-744,688,16600,105,-303,-19
5652000,-732,704,16652,104,-291,-17
5654000,-736,732,16656,86,-290,-4
5656004,-716,772,16640,114,-288,-6
5658000,-756,760,16756,114,-277,0
5660004,-700,724,16656,117,-264,-29
5662000,-760,732,16596,91,-293,-19
5664000,-784,724,16684,93,-322,2
5666000,-756,732,16748,114,-269,-18
5668004,-796,816,16780,122,-288,-8
5670000,-792,760,16680,141,-295,-27
5672000,-732,700,16704,83,-304,-14
5674000,-784,744,16600,90,-300,-32
5676000,-736,736,16612,112,-294,-23
5678000,-808,744,16648,145,-279,-29
5680000,-892,760,16676,109,-259,-2
5682000,-772,820,16652,91,-292,-17
5684000,-816,784,16552,109,-314,-22
5686000,-764,736,16724,114,-282,18
5688000,-772,712,16616,103,-297,-28
5690000,-752,768,16696,105,-304,-44
5692000,-744,720,16612,84,-297,-34
5694000,-728,812,16700,123,-281,-13
5696000,-772,712,16708,111,-279,-15
5698000,-784,748,16772,100,-276,-36
5700000,-776,728,16580,118,-299,-7
5702000,-744,700,16696,119,-290,-18
5704000,-748,724,16648,99,-263,9
5706000,-720,688,16648,93,-294,-11
5708000,-844,784,16652,135,-302,-40
5710000,-744,724,16676,131,-292,-16
5712000,-712,740,16600,100,-289,21
5714000,-732,680,16692,121,-332,-22
5716000,-748,776,16716,128,-302,-2
5718000,-700,752,16696,102,-298,-28
5720000,-784,756,16640,66,-311,-27
5722000,-736,728,16636,90,-275,-18
5724000,-724,772,16680,143,-286,11
5726000,-712,792,16680,108,-293,-3
5728000,-712,696,16744,107,-277,-34
5730000,-736,736,16664,136,-299,-36
5732000,-808,732,16648,148,-298,-34
5734000,-776,708,16632,105,-300,-39
5736004,-736,740,16668,118,-294,10
5738000,-812,724,16760,118,-302,-11
5740000,-764,740,16664,133,-301,-55
5742000,-800,804,16664,110,-295,-12
5744000,-776,692,16624,121,-302,-9
5746000,-764,752,16668,116,-287,-35
5748000,-736,776,16812,130,-281,-10
5750000,-788,772,16712,90,-318,-27
5752000,-752,736,16576,113,-284,-25
5754000,-748,748,16660,129,-275,1
5756000,-740,716,16668,126,-337,-32
5758000,-724,736,16748,133,-275,-12
5760000,-728,764,16704,126,-296,-12
5762000,-792,772,16672,70,-303,-13
5764000,-748,812,16664,121,-284,-43
5766000,-764,732,16652,110,-278,12
5768000,-772,788,16664,133,-272,-4
5770000,-788,788,16636,116,-319,-17
5772000,-768,724,16728,98,-285,-39
5774000,-776,748,16672,143,-264,-7
5776000,-736,708,16672,101,-323,1
5778000,-756,696,16704,125,-317,-36
5780000,-752,736,16760,100,-257,-46
5782000,-740,660,16676,103,-296,-35
5784004,-772,716,16632,115,-264,-9
5786000,-740,748,16764,111,-269,-28
5788004,-768,780,16656,110,-301,9
5790000,-768,796,16608,104,-272,-30
5792000,-768,716,16664,119,-287,-10
5794000,-692,728,16656,128,-292,-14
5796000,-780,728,16676,100,-282,-27
5798004,-728,740,16656,94,-275,-17
5800000,-840,780,16660,109,-268,11
5802000,-828,740,16728,108,-294,5
5804000,-788,716,16592,104,-297,7
5806000,-812,688,16756,128,-295,-27
5808000,-764,804,16504,104,-290,-2
5810000,-768,728,16640,111,-317,-29
5812000,-740,704,16648,99,-284,-21
5814000,-748,752,16720,137,-299,1
5816000,-676,676,16728,108,-295,-19
5818000,-716,752,16580,121,-298,-18
5820000,-796,752,16628,123,-271,-34
5822000,-812,736,16656,98,-278,15
5824000,-812,772,16612,126,-275,-7
5826000,-760,780,16740,122,-298,-13
5828000,-732,772,16712,104,-294,-15
5830000,-792,740,16716,103,-280,-7
5832000,-776,628,16636,111,-298,8
5834000,-748,720,16628,141,-280,-47
5836004,-768,728,16660,74,-300,-15
5838000,-820,704,16664,124,-305,-3
5840000,-780,696,16736,106,-293,-36
5842000,-748,688,16624,113,-314,-53
5844004,-768,808,16616,102,-298,-48
5846000,-784,784,16624,116,-279,12
5848000,-752,644,16640,78,-299,-15
5850000,-804,756,16680,80,-297,-17
5852000,-788,724,16732,136,-278,-5
5854000,-724,724,16700,94,-291,-37
5856000,-708,740,16584,87,-292,-57
5858000,-740,752,16612,110,-301,-15
5860000,-740,732,16616,127,-295,-24
5862000,-772,760,16636,95,-247,1
5864004,-736,648,16628,106,-267,10
5866000,-668,748,16668,129,-304,-5
5868000,-780,744,16676,90,-309,-9
5870000,-772,712,16724,94,-278,-20
5872000,-728,728,16700,106,-293,-47
5874000,-708,704,16728,94,-268,-9
5876000,-808,700,16740,110,-325,-24
5878004,-772,772,16580,130,-287,14
5880000,-796,780,16668,126,-277,2
5882000,-792,756,16728,136,-298,-18
5884000,-732,816,16620,133,-297,-2
5886004,-744,760,16696,119,-290,-37
5888000,-748,732,16672,125,-292,-16
5890000,-672,772,16684,126,-280,4
5892000,-816,760,16676,122,-283,-19
5894000,-800,716,16644,116,-283,-1
5896000,-744,728,16592,114,-282,-24
5898000,-696,712,16568,128,-303,-28
5900000,-752,748,16660,121,-299,-52
5902000,-780,700,16684,105,-319,-30
5904000,-772,772,16656,105,-289,-6
5906000,-772,792,16636,124,-287,5
5908000,-764,732,16660,120,-282,-29
5910000,-740,740,16696,123,-307,-12
5912000,-776,736,16716,83,-281,-22
5914000,-752,720,16696,137,-300,-19
5916004,-804,764,16708,92,-295,2
5918000,-680,740,16656,126,-284,2
5920000,-772,756,16604,145,-240,-41
5922000,-720,788,16692,119,-317,-21
5924000,-712,744,16656,81,-255,-23
5926004,-784,736,16608,132,-292,5
5928000,-816,780,16620,108,-290,-17
5930000,-800,776,16732,168,-269,-32
5932000,-728,740,16564,111,-299,-24
5934000,-752,748,16648,129,-258,-10
5936000,-772,736,16712,85,-258,-35
5938000,-824,764,16664,129,-319,-14
5940000,-784,756,16572,117,-301,3
5942000,-700,792,16672,122,-284,-2
5944004,-752,788,16688,96,-278,-33
5946000,-804,720,16628,115,-273,-21
5948000,-780,688,16584,115,-298,-33
5950000,-776,720,16732,135,-296,0
5952000,-728,828,16648,105,-308,30
5954000,-744,768,16648,119,-297,-17
5956000,-764,740,16608,138,-294,-51
5958000,-776,724,16656,132,-287,-21
5960000,-812,752,16664,125,-290,-32
5962000,-784,720,16708,105,-279,-22
5964000,-784,736,16700,87,-284,-13
5966000,-720,728,16712,114,-289,0
5968000,-716,712,16724,111,-295,-31
5970000,-752,720,16744,102,-283,2
5972000,-796,752,16708,90,-279,-23
5974000,-776,824,16544,140,-262,-22
5976000,-760,708,16660,108,-240,-21
5978000,-744,772,16660,77,-302,-24
5980000,-756,708,16692,104,-287,-45
5982000,-716,740,16668,97,-275,-39
5984000,-780,788,16732,115,-298,0
5986000,-780,800,16684,106,-313,15
5988000,-728,792,16600,109,-301,-49
5990000,-812,708,16564,138,-291,-13
5992004,-784,756,16640,119,-312,-22
5994000,-820,700,16688,91,-264,-1
5996000,-740,716,16564,101,-292,-41
5998000,-748,696,16668,119,-283,-7
6000000,-764,764,16652,132,-324,-13
6002000,-752,732,16704,116,-283,-23
6004000,-816,708,16752,74,-317,-24
6006000,-728,716,16632,124,-294,-39
6008000,-772,692,16684,107,-284,-28
6010000,-736,704,16644,122,-313,3
6012000,-740,764,16772,129,-296,-33
6014000,-788,708,16632,141,-296,-47
6016000,-732,728,16564,90,-279,-17
6018000,-780,704,16740,129,-296,-30
6020000,-720,824,16660,113,-263,-9
6022000,-804,732,16644,126,-297,-2
6024000,-736,724,16668,138,-257,-13
6026000,-760,756,16712,105,-291,-25
6028000,-772,756,16652,131,-276,3
6030000,-804,756,16716,143,-315,-31
6032000,-764,756,16656,96,-272,4
6034000,-792,756,16712,154,-284,-36
6036000,-724,764,16580,114,-296,-6
6038000,-828,712,16672,129,-289,4
6040004,-736,716,16584,103,-307,-39
6042000,-752,668,16564,123,-261,-14
6044004,-772,748,16600,115,-280,-48
6046000,-760,716,16632,135,-252,12
6048000,-772,720,16688,96,-282,-46
6050000,-800,744,16660,95,-292,-19
6052000,-736,796,16592,98,-294,1
6054004,-728,760,16700,123,-286,-12
6056000,-708,644,16616,109,-272,-33
6058000,-748,748,16700,102,-256,4
6060000,-784,732,16640,104,-289,-12
6062000,-756,732,16624,97,-292,-12
6064000,-772,756,16724,104,-258,-13
6066000,-816,696,16684,126,-279,-27
6068000,-808,780,16776,114,-295,-20
6070000,-728,732,16596,94,-286,-34
6072000,-696,792,16696,94,-295,-24
6074000,-760,708,16668,82,-283,7
6076000,-820,728,16632,132,-286,-32
6078000,-784,788,16796,102,-308,21
6080000,-704,704,16600,106,-300,-14
6082000,-768,816,16656,133,-260,-17
6084000,-748,684,16664,90,-285,3
6086000,-748,836,16564,138,-280,-40
6088000,-800,748,16648,125,-289,-37
6090000,-708,700,16656,118,-285,-33
6092004,-768,736,16724,112,-252,-13
6094000,-776,700,16640,94,-260,-16
6096000,-780,752,16644,75,-270,-36
6098000,-768,740,16700,123,-319,-30
6100004,-728,724,16656,97,-334,-24
6102000,-692,816,16600,106,-280,-15
6104000,-796,776,16704,126,-282,-20
6106000,-756,724,16720,69,-269,-45
6108000,-736,740,16648,138,-262,-21
6110000,-764,740,16644,111,-261,-32
6112000,-756,728,16676,114,-297,-5
6114000,-760,720,16620,127,-303,-39
6116000,-764,792,16652,119,-293,-25
6118000,-712,744,16704,128,-301,-12
6120004,-720,752,16572,77,-336,-26
6122000,-772,712,16696,105,-304,-19
6124000,-700,756,16584,122,-287,-24
6126000,-744,800,16692,82,-298,-44
6128000,-772,772,16684,135,-318,-32
6130000,-736,704,16580,109,-292,2
6132000,-784,744,16664,115,-269,-4
6134004,-724,680,16760,98,-327,-7
6136000,-768,712,16740,119,-283,-7
6138000,-772,744,16788,111,-274,-62
6140000,-760,720,16620,108,-287,8
6142004,-724,816,16732,76,-286,6
6144000,-760,828,16748,119,-273,-50
6146000,-764,788,16744,89,-316,-10
6148000,-756,732,16752,84,-252,-19
6150004,-812,776,16692,105,-291,-45
6152000,-760,740,16636,129,-293,11
6154000,-712,772,16692,78,-313,-8
6156000,-772,792,16680,118,-285,-25
6158000,-740,748,16680,127,-262,-22
6160000,-824,688,16636,87,-302,18
6162000,-748,712,16692,128,-307,-29
6164000,-708,748,16680,128,-305,6
6166000,-780,728,16652,147,-283,-18
6168004,-720,756,16696,116,-281,-19
6170000,-772,736,16544,114,-293,-29
6172004,-700,768,16692,96,-296,-27
6174000,-780,712,16732,112,-285,-3
6176000,-712,796,16708,65,-292,-50
6178000,-748,788,16604,89,-263,-14
6180000,-680,740,16676,121,-269,-30
6182004,-768,756,16644,121,-275,-6
6184000,-764,732,16612,129,-309,-21
6186000,-732,728,16748,84,-295,-3
6188000,-760,796,16756,115,-269,-7
6190000,-704,796,16736,99,-259,-12
6192000,-800,744,16640,126,-295,-11
6194000,-792,760,16668,90,-308,-21
6196000,-732,768,16572,111,-284,-27
6198000,-776,772,16724,105,-294,-7
6200004,-772,788,16636,99,-312,-17
6202000,-744,780,16736,94,-269,-5
6204000,-724,776,16608,105,-297,-46
6206000,-804,724,16684,133,-277,-2
6208000,-704,784,16688,117,-316,-21
6210000,-792,680,16688,102,-294,-16
6212000,-732,788,16660,116,-275,-17
6214000,-788,744,16664,98,-300,-21
6216000,-748,712,16692,112,-289,-33
6218000,-792,764,16688,116,-313,-5
6220000,-808,736,16632,128,-280,12
6222000,-776,736,16624,117,-313,-22
6224000,-792,728,16656,113,-303,-30
6226000,-792,696,16632,89,-260,-43
6228000,-780,724,16740,105,-319,-17
6230000,-776,748,16648,130,-289,-17
6232000,-792,820,16620,111,-311,-17
6234000,-656,808,16788,104,-286,-46
6236000,-752,744,16612,105,-276,-39
6238000,-760,824,16700,88,-303,-19
6240000,-688,728,16640,116,-271,0
6242000,-736,768,16692,118,-307,-35
6244000,-688,780,16744,141,-313,-7
6246000,-752,760,16700,97,-257,5
6248004,-764,768,16784,118,-309,3
6250000,-784,784,16620,120,-290,-39
6252004,-752,656,16652,97,-298,-2
6254000,-724,748,16620,105,-263,-22
6256000,-756,736,16716,131,-293,22
6258000,-804,700,16708,129,-305,-27
6260000,-784,696,16632,80,-270,-11
6262000,-780,772,16568,93,-288,7
6264000,-812,744,16660,128,-252,-22
6266000,-820,728,16632,116,-309,4
6268000,-856,796,16664,99,-238,-7
6270000,-780,768,16636,135,-327,-29
6272000,-856,712,16668,118,-285,-20
6274000,-820,684,16608,117,-284,5
6276000,-720,740,16572,121,-260,-9
6278000,-764,724,16588,77,-307,-11
6280000,-740,772,16676,113,-293,-4
6282000,-700,728,16648,105,-289,0
6284000,-808,760,16672,155,-297,-10
6286000,-716,700,16608,122,-281,-27
6288000,-716,740,16696,101,-285,-18
6290000,-740,692,16612,105,-320,-22
6292000,-792,780,16732,118,-290,-6
6294000,-772,832,16672,149,-294,-40
6296004,-720,720,16676,83,-282,-29
6298000,-768,736,16716,87,-304,-2
6300004,-828,736,16608,90,-312,-5
6302000,-788,792,16680,94,-296,-30
6304000,-732,716,16648,136,-257,-32
6306000,-748,772,16664,103,-292,7
6308000,-792,764,16668,94,-280,-17
6310004,-712,756,16720,82,-291,17
6312000,-728,764,16688,106,-275,-12
6314000,-768,736,16744,101,-293,-15
6316000,-776,788,16600,109,-306,3
6318000,-848,732,16720,144,-288,-9
6320000,-824,732,16692,114,-288,-14
6322000,-772,816,16636,79,-316,-45
6324000,-736,712,16636,108,-285,-25
6326000,-780,736,16656,107,-324,-5
6328000,-780,764,16648,128,-321,-33
6330000,-760,720,16664,85,-303,-33
6332000,-700,768,16616,120,-319,-44
6334000,-772,752,16636,125,-294,-25
6336000,-760,748,16748,91,-320,-2
6338000,-756,732,16708,93,-310,18
6340000,-756,708,16712,150,-276,-41
6342000,-708,736,16648,96,-310,-28
6344000,-716,724,16580,122,-292,-19
6346000,-752,752,16656,110,-274,-30
6348000,-796,760,16712,103,-296,-4
6350000,-732,728,16596,129,-260,-7
6352000,-784,684,16676,126,-286,-19
6354000,-800,744,16608,114,-288,-22
6356000,-764,652,16700,102,-311,-18
6358000,-780,764,16644,101,-281,-26
6360000,-756,704,16640,123,-262,-16
6362000,-812,748,16720,95,-294,29
6364000,-816,768,16680,145,-288,-23
6366000,-784,712,16612,92,-272,-17
6368000,-708,796,16572,142,-300,-38
6370000,-708,712,16724,125,-302,-31
6372000,-748,736,16700,108,-265,-17
6374000,-736,732,16572,121,-272,-15
6376004,-792,688,16660,89,-268,-17
6378000,-796,720,16624,96,-292,-33
6380004,-720,720,16608,131,-258,-30
6382000,-756,768,16716,140,-313,-9
6384000,-776,748,16664,104,-311,-8
6386000,-832,712,16680,130,-310,-28
6388000,-752,748,16660,141,-288,-22
6390004,-796,784,16616,100,-302,-10
6392000,-788,752,16580,113,-273,-15
6394000,-792,776,16708,94,-279,-20
6396000,-780,792,16620,109,-270,-20
6398004,-760,752,16768,148,-298,-11
6400000,-796,684,16692,104,-338,-23
6402000,-784,692,16620,118,-276,-19
6404000,-788,796,16704,124,-300,-11
6406004,-724,864,16652,120,-270,-50
6408000,-740,772,16676,148,-288,-36
6410000,-784,748,16592,133,-319,-20
6412000,-748,748,16636,125,-294,-27
6414000,-808,704,16732,100,-297,-7
6416000,-808,736,16696,147,-291,-27
6418000,-804,760,16700,105,-283,-25
6420000,-784,764,16632,105,-290,-5
6422000,-784,748,16592,128,-304,-28
6424004,-716,764,16592,97,-280,-29
6426000,-716,768,16596,107,-282,-17
6428004,-800,732,16696,158,-299,-18
6430000,-740,760,16676,122,-266,-14
6432000,-788,788,16660,108,-300,3
6434000,-740,764,16624,130,-290,-3
6436000,-840,692,16720,122,-280,-52
6438004,-784,748,16680,130,-311,-26
6440000,-756,732,16584,105,-312,-33
6442000,-768,780,16688,109,-309,-17
6444000,-784,764,16596,132,-294,-22
6446000,-736,768,16612,104,-299,-12
6448000,-760,776,16644,96,-264,-4
6450000,-784,756,16664,71,-285,-26
6452000,-804,684,16600,113,-308,-3
6454000,-788,716,16668,128,-287,-14
6456004,-712,784,16712,93,-304,24
6458000,-756,776,16644,105,-305,-28
6460000,-712,716,16600,97,-294,-20
6462000,-716,680,16612,133,-292,-20
6464000,-720,776,16696,160,-260,-26
6466000,-744,756,16708,85,-285,-15
6468000,-740,756,16576,102,-314,-43
6470000,-752,768,16660,87,-305,5
6472000,-788,664,16660,92,-296,-35
6474000,-732,752,16744,92,-272,-10
6476004,-720,680,16656,93,-301,-6
6478000,-740,696,16636,135,-282,-24
6480000,-716,708,16624,98,-305,2
6482000,-708,760,16676,95,-291,-19
6484004,-780,740,16692,106,-308,-27
6486000,-820,768,16728,95,-303,-9
6488000,-816,700,16576,119,-275,-20
6490000,-780,728,16664,109,-298,-34
6492000,-736,784,16624,102,-298,-34
6494000,-760,720,16632,124,-291,-29
6496000,-736,752,16476,84,-302,-26
6498000,-772,760,16620,113,-277,-30
6500000,-784,760,16576,110,-291,11
6502000,-744,644,16640,167,-290,-60
6504004,-776,828,16632,125,-269,-17
6506000,-788,756,16688,121,-314,-8
6508000,-804,808,16612,105,-283,-17
6510000,-700,776,16720,120,-274,-23
6512004,-728,812,16764,127,-282,-34
6514000,-692,672,16692,91,-268,-22
6516000,-800,748,16608,112,-253,-15
6518000,-748,776,16628,99,-291,-43
6520000,-812,744,16656,83,-292,-11
6522000,-768,696,16604,96,-318,-37
6524000,-748,724,16612,118,-282,-54
6526000,-780,760,16640,138,-310,-9
6528000,-772,728,16728,112,-278,-17
6530000,-740,720,16576,92,-323,-35
6532000,-708,772,16688,111,-288,-8
6534000,-784,724,16648,97,-303,-28
6536000,-668,736,16652,97,-310,-33
6538000,-700,716,16688,114,-284,-47
6540000,-760,696,16736,113,-282,-25
6542000,-720,700,16612,122,-292,-2
6544000,-728,664,16596,155,-277,-1
6546000,-764,712,16528,112,-281,-6
6548000,-812,744,16644,122,-278,-31
6550000,-752,804,16660,100,-276,10
6552004,-760,748,16652,113,-317,-17
6554000,-740,744,16704,148,-291,-25
6556004,-768,728,16648,70,-268,-30
6558000,-800,740,16672,88,-297,-25
6560000,-756,744,16620,96,-319,1
6562000,-840,764,16616,113,-262,-32
6564000,-840,776,16660,111,-292,-9
6566004,-760,776,16648,111,-292,-8
6568000,-700,776,16748,128,-282,-35
6570000,-760,764,16748,103,-296,11
6572000,-756,748,16648,139,-309,-17
6574000,-728,692,16660,130,-263,-26
6576000,-768,712,16768,104,-295,-29
6578000,-788,720,16608,121,-299,-18
6580000,-744,808,16620,118,-322,-30
6582000,-792,736,16668,88,-298,5
6584000,-700,752,16608,103,-301,-6
6586000,-752,740,16716,116,-339,-12
6588000,-752,668,16700,109,-314,1
6590000,-748,724,16700,141,-259,-13
6592000,-796,800,16676,106,-293,-36
6594000,-720,776,16676,120,-269,-41
6596000,-728,744,16716,128,-279,12
6598000,-776,700,16788,119,-296,13
6600000,-804,732,16740,120,-276,-23
6602000,-764,728,16628,113,-284,-14
6604000,-780,808,16656,97,-274,5
6606000,-764,724,16620,92,-321,-12
6608000,-728,796,16752,109,-290,-38
6610000,-748,736,16636,122,-267,-35
6612000,-700,720,16732,84,-261,-29
6614000,-804,788,16604,95,-271,-11
6616000,-840,744,16612,93,-287,1
6618000,-784,780,16672,97,-324,-9
6620000,-736,784,16520,105,-297,-14
6622000,-812,784,16648,120,-252,-27
6624000,-756,776,16600,101,-304,-52
6626000,-772,756,16640,101,-286,-6
6628000,-736,748,16692,119,-283,-5
6630000,-792,728,16724,144,-305,-9
