micros,ax,ay,az,gx,gy,gz
0,-852,608,16680,144,-286,-22
2000,-928,684,16664,100,-271,-2
4000,-864,672,16580,107,-314,13
6000,-908,640,16732,102,-293,-16
8000,-860,676,16584,95,-280,-20
10000,-868,632,16684,130,-293,-35
12000,-884,660,16660,119,-266,-12
14000,-892,696,16632,131,-304,-55
16000,-916,704,16628,101,-283,-25
18000,-884,700,16508,90,-306,-25
20000,-848,660,16616,106,-272,-5
22000,-900,704,16580,129,-266,32
24000,-876,704,16664,106,-293,-18
26000,-952,656,16660,99,-309,-6
28000,-904,684,16644,101,-290,-21
30000,-928,684,16692,122,-263,-8
32000,-900,720,16616,126,-281,-21
34000,-844,680,16620,106,-312,5
36000,-864,744,16648,103,-294,-20
38000,-896,720,16612,110,-308,17
40000,-880,696,16640,119,-280,-43
42000,-824,656,16684,100,-307,-6
44000,-920,640,16656,119,-306,-21
46000,-892,724,16680,98,-298,-9
48000,-888,648,16728,125,-311,-29
50000,-852,732,16568,96,-324,-41
52000,-860,684,16568,108,-296,-16
54000,-844,704,16548,110,-293,-26
56000,-824,640,16720,156,-297,-25
58000,-820,648,16728,124,-293,-19
60004,-800,636,16584,74,-307,3
62000,-840,576,16636,125,-302,-13
64000,-824,736,16632,106,-306,-5
66000,-852,632,16712,122,-309,10
68000,-792,640,16724,133,-259,0
70000,-836,708,16656,118,-295,29
72000,-904,684,16648,56,-314,-15
74004,-916,576,16676,82,-288,1
76000,-872,680,16644,86,-304,-23
78000,-872,724,16664,101,-289,-13
80000,-844,652,16648,105,-284,-6
82000,-880,636,16644,118,-302,-4
84000,-832,664,16596,129,-298,4
86004,-852,692,16536,80,-325,-27
88000,-860,616,16720,119,-320,-20
90000,-872,688,16692,87,-261,-4
92004,-872,632,16612,132,-304,-13
94000,-924,696,16648,103,-299,-24
96000,-872,684,16560,118,-296,-20
98000,-868,708,16560,105,-291,-36
100000,-828,664,16696,115,-296,0
102000,-812,744,16680,117,-265,-2
104000,-876,720,16592,134,-280,-36
106000,-848,672,16628,78,-302,24
108000,-856,688,16556,92,-269,-11
110000,-888,616,16600,110,-296,-15
112004,-888,652,16564,94,-300,-12
114000,-904,652,16748,117,-292,-20
116000,-924,720,16668,76,-328,14
118000,-976,736,16676,96,-284,-35
120000,-852,660,16612,94,-310,3
122000,-836,648,16648,127,-305,-5
124000,-840,672,16592,133,-301,-12
126000,-892,704,16712,90,-306,-15
128004,-868,676,16640,73,-309,-24
130000,-876,700,16772,84,-289,-18
132000,-832,640,16676,119,-263,7
134000,-868,668,16628,129,-265,-8
136000,-860,660,16572,116,-267,-19
138000,-908,612,16608,109,-319,-55
140000,-820,588,16600,119,-310,0
142000,-848,684,16628,144,-283,-43
144000,-776,672,16668,134,-269,-52
146000,-880,684,16556,117,-272,-19
148000,-896,676,16640,109,-312,-13
150000,-788,624,16536,151,-299,-31
152000,-856,680,16512,104,-301,-50
154000,-808,760,16680,139,-289,-10
156000,-824,652,16720,89,-260,10
158000,-868,660,16640,92,-278,-21
160000,-876,616,16648,105,-330,-9
162000,-916,704,16600,120,-318,-53
164000,-884,724,16604,91,-291,5
166000,-792,632,16740,132,-293,-31
168000,-844,640,16656,143,-309,-15
170000,-908,736,16640,84,-304,-19
172000,-936,744,16612,142,-322,-6
174000,-892,628,16560,127,-307,9
176000,-856,612,16660,82,-274,-21
178000,-844,724,16576,104,-267,8
180000,-828,684,16664,129,-292,-8
182000,-892,772,16664,110,-318,-39
184000,-940,728,16596,113,-326,4
186004,-892,660,16536,127,-277,-21
188004,-956,680,16612,106,-301,-3
190000,-804,672,16728,128,-280,-51
192000,-908,696,16640,93,-314,1
194000,-912,652,16600,117,-316,-29
196000,-932,672,16672,95,-279,3
198000,-784,668,16580,107,-292,-12
200000,-900,736,16696,119,-319,3
202000,-892,764,16680,106,-280,3
204000,-876,696,16608,88,-280,1
206000,-900,588,16648,98,-325,-27
208000,-872,684,16612,102,-337,-12
210000,-844,640,16612,125,-262,-10
212000,-884,616,16736,139,-296,-22
214004,-900,644,16680,131,-306,-17
216000,-868,632,16604,116,-310,10
218000,-852,632,16632,79,-304,-19
220000,-848,644,16568,97,-290,-32
222000,-772,700,16684,132,-264,-14
224000,-856,692,16664,120,-303,6
226000,-868,716,16604,90,-319,-58
228000,-892,652,16724,108,-267,-18
230000,-928,704,16660,100,-304,-2
232000,-872,664,16588,107,-276,-22
234000,-828,712,16632,107,-324,15
236004,-864,696,16656,110,-312,-64
238000,-872,708,16716,94,-288,-29
240000,-848,668,16652,99,-289,-5
242004,-848,648,16604,99,-305,-31
244000,-812,676,16712,94,-286,-21
246000,-908,628,16624,123,-267,-35
248000,-892,672,16612,109,-304,8
250000,-880,672,16628,71,-272,-9
252000,-896,632,16572,119,-308,-4
254000,-836,664,16676,127,-292,5
256000,-876,704,16652,80,-279,20
258000,-936,700,16588,94,-301,-16
260000,-864,664,16620,94,-280,-41
262000,-836,684,16652,87,-277,8
264000,-880,676,16744,93,-279,-20
266000,-880,680,16636,116,-323,-3
268000,-848,652,16656,118,-317,-17
270000,-844,668,16732,120,-288,15
272000,-824,724,16628,72,-313,-18
274000,-840,644,16664,90,-268,-1
276000,-876,656,16692,137,-289,-9
278000,-856,672,16596,108,-270,-25
280000,-816,764,16648,133,-316,25
282000,-860,688,16544,91,-297,-21
284000,-876,648,16556,125,-296,-17
286000,-888,644,16572,64,-323,-15
288000,-892,644,16772,126,-251,-3
290000,-860,744,16624,110,-258,-42
292000,-988,704,16708,73,-305,-44
294000,-828,672,16724,120,-319,-36
296000,-860,692,16616,97,-300,-11
298000,-888,652,16516,103,-267,-34
300000,-912,636,16696,110,-317,7
302000,-856,684,16636,86,-276,-34
304000,-816,640,16616,115,-274,-32
306000,-856,648,16556,128,-299,-23
308000,-892,628,16592,120,-293,-26
310000,-896,656,16648,133,-261,-4
312000,-880,644,16620,89,-304,-24
314000,-888,628,16652,124,-294,-21
316004,-872,660,16512,103,-318,-20
318000,-856,688,16592,93,-316,-13
320000,-880,668,16712,84,-294,15
322000,-832,688,16552,86,-255,12
324000,-912,712,16620,112,-322,-34
326000,-832,624,16520,102,-321,-30
328000,-860,652,16568,107,-300,-17
330000,-936,736,16528,106,-308,-16
332000,-836,592,16616,104,-301,-7
334000,-840,660,16664,102,-257,8
336000,-932,596,16688,71,-279,-36
338000,-868,708,16664,66,-327,-31
340000,-876,668,16564,110,-261,-20
342004,-820,664,16608,126,-290,0
344000,-944,636,16620,108,-293,-25
346000,-852,704,16656,135,-294,-11
348000,-936,676,16704,127,-286,-19
350000,-932,748,16568,104,-299,-22
352000,-944,668,16608,115,-284,-5
354000,-904,636,16588,106,-285,-22
356000,-880,672,16620,125,-289,-14
358000,-860,692,16660,76,-307,-3
360000,-868,684,16576,99,-324,-10
362000,-852,664,16668,96,-315,-10
364004,-880,632,16648,96,-300,-44
366000,-812,672,16644,119,-253,-35
368000,-884,736,16648,116,-279,-43
370004,-940,712,16632,51,-292,0
372000,-900,732,16584,105,-295,9
374000,-820,664,16540,109,-313,-21
376000,-848,668,16552,107,-278,18
378000,-852,792,16672,100,-298,4
380000,-812,636,16680,97,-301,-3
382000,-860,680,16584,89,-320,-14
384000,-864,716,16580,92,-291,-12
386000,-804,588,16628,122,-284,-15
388000,-836,652,16700,82,-313,-10
390000,-888,696,16684,101,-285,-22
392000,-836,700,16696,115,-309,-2
394000,-844,704,16484,93,-334,-3
396000,-908,652,16676,106,-325,-24
398000,-792,720,16508,104,-280,-47
400004,-840,656,16596,127,-288,3
402000,-872,676,16724,134,-312,-31
404000,-900,676,16592,108,-290,-24
406000,-860,692,16724,110,-312,-28
408000,-880,628,16520,78,-280,-40
410000,-888,652,16672,73,-286,-25
412000,-880,640,16592,126,-286,-14
414000,-888,704,16604,97,-262,-4
416000,-832,688,16660,119,-313,-28
418000,-884,704,16624,92,-250,-27
420000,-872,608,16508,101,-263,-27
422000,-844,636,16696,134,-298,-12
424000,-896,728,16656,141,-282,5
426000,-868,668,16676,95,-283,23
428000,-836,720,16656,120,-328,-14
430000,-828,692,16568,104,-291,-8
432000,-856,676,16644,120,-283,42
434000,-816,580,16588,139,-288,-25
436004,-928,640,16644,100,-285,-2
438000,-848,644,16572,98,-278,0
440000,-932,660,16540,90,-321,-12
442000,-900,724,16616,129,-296,18
444004,-880,724,16620,100,-303,7
446000,-896,704,16680,124,-292,-10
448000,-920,652,16564,90,-299,-30
450000,-852,660,16500,91,-302,-13
452000,-852,632,16596,104,-265,-9
454000,-832,720,16676,120,-290,27
456000,-824,700,16604,111,-283,-23
458000,-824,632,16692,118,-313,-39
460000,-904,704,16752,95,-288,-5
462000,-864,708,16556,97,-279,-8
464000,-860,616,16556,89,-318,14
466000,-872,664,16696,139,-284,-35
468000,-884,708,16644,139,-308,11
470004,-916,672,16612,126,-271,-27
472000,-896,688,16580,124,-307,-21
474000,-816,632,16544,95,-333,-21
476000,-816,672,16580,134,-279,-30
478000,-812,588,16716,120,-316,-34
480000,-864,704,16668,127,-312,-2
482000,-876,724,16680,72,-322,-34
484000,-852,716,16628,80,-302,-31
486000,-860,688,16604,114,-305,-9
488000,-880,612,16704,142,-298,-3
490000,-884,700,16676,107,-288,21
492000,-872,696,16652,100,-303,-13
494000,-904,712,16592,114,-298,6
496000,-840,704,16584,102,-307,-24
498000,-896,708,16544,117,-272,-10
500000,-896,740,16532,132,-261,-3
502000,-812,708,16668,117,-308,-21
504000,-896,732,16632,87,-309,-18
506000,-868,724,16624,96,-306,14
508000,-828,676,16524,109,-305,-11
510000,-904,672,16620,111,-324,-13
512000,-892,716,16636,113,-269,-5
514000,-916,684,16628,137,-253,-35
516000,-876,720,16656,86,-279,-42
518000,-804,744,16640,90,-296,-25
520000,-928,696,16580,111,-306,-31
522000,-880,680,16548,114,-286,-21
524000,-880,716,16520,102,-307,-63
526000,-884,700,16716,137,-316,-1
528000,-888,716,16616,101,-310,-11
530000,-852,684,16616,108,-305,-14
532000,-912,620,16632,117,-296,-6
534000,-788,716,16636,84,-300,-28
536000,-900,628,16732,100,-320,3
538000,-888,740,16684,131,-283,-27
540000,-884,676,16568,105,-314,-2
542000,-900,624,16696,106,-283,-33
544000,-864,632,16608,97,-289,-20
546000,-936,632,16584,153,-329,-15
548000,-844,756,16628,86,-283,16
550000,-844,720,16660,124,-310,-26
552000,-888,612,16560,97,-311,-17
554000,-828,660,16624,98,-256,-39
556000,-868,700,16592,135,-312,-10
558000,-892,692,16596,109,-279,5
560000,-824,724,16648,110,-304,-15
562000,-896,668,16564,111,-329,3
564000,-884,680,16744,129,-285,-35
566000,-884,648,16640,90,-293,-24
568000,-816,684,16684,90,-300,10
570000,-916,704,16620,122,-273,11
572004,-884,672,16684,86,-285,10
574000,-880,640,16628,100,-326,6
576000,-852,648,16596,128,-307,5
578000,-864,740,16692,83,-273,14
580000,-900,692,16628,88,-277,-9
582000,-868,760,16528,100,-321,-16
584000,-824,692,16644,92,-338,2
586000,-872,680,16660,97,-307,-10
588000,-892,672,16576,130,-290,-17
590000,-888,792,16632,109,-255,-2
592000,-904,760,16576,92,-303,1
594000,-932,708,16696,64,-316,-28
596000,-848,712,16572,106,-299,-16
598000,-908,712,16600,107,-292,9
600000,-876,712,16764,123,-295,14
602000,-876,612,16608,108,-294,28
604000,-892,624,16620,108,-296,0
606000,-912,688,16604,119,-293,4
608000,-848,748,16564,86,-288,-31
610000,-896,724,16676,133,-296,-8
612000,-892,684,16584,89,-265,-27
614000,-868,672,16616,130,-292,-19
616000,-808,628,16632,114,-307,7
618000,-860,712,16644,132,-278,-46
620000,-780,628,16588,115,-315,-20
622000,-868,680,16584,109,-300,-56
624000,-868,716,16572,113,-292,-36
626000,-864,704,16680,105,-305,-7
628000,-836,684,16556,106,-314,-19
630000,-868,680,16636,100,-312,-5
632000,-864,656,16608,120,-290,-23
634000,-824,692,16588,125,-288,-18
636000,-912,600,16708,87,-294,25
638000,-836,680,16644,89,-295,0
640000,-860,728,16672,117,-307,-20
642000,-872,676,16624,147,-304,-28
644000,-884,680,16644,94,-289,-15
646000,-800,676,16644,119,-279,-26
648000,-852,676,16560,98,-286,-16
650000,-948,668,16512,98,-286,-10
652000,-828,672,16580,92,-336,15
654000,-836,624,16600,79,-286,-6
656004,-876,700,16716,112,-249,-18
658000,-856,688,16584,99,-261,-33
660000,-868,688,16676,86,-305,-19
662000,-860,632,16684,123,-312,-19
664000,-868,612,16608,94,-308,-12
666000,-820,672,16652,125,-261,-10
668000,-800,632,16732,84,-289,-34
670000,-888,720,16656,124,-314,-40
672000,-872,712,16668,152,-287,21
674000,-872,764,16632,105,-290,-24
676000,-932,700,16676,124,-296,4
678000,-788,632,16660,117,-299,-50
680000,-872,656,16628,99,-313,-13
682000,-872,648,16684,111,-297,-10
684004,-868,696,16612,111,-301,-16
686000,-832,688,16624,131,-283,-25
688000,-824,712,16664,138,-313,-25
690000,-824,676,16696,113,-291,-4
692000,-824,700,16620,116,-265,19
694000,-912,704,16660,116,-296,-15
696000,-840,668,16576,73,-325,12
698000,-860,652,16620,112,-299,17
700004,-860,704,16672,104,-282,-30
702000,-856,676,16780,107,-287,-57
704000,-884,632,16640,115,-318,-9
706000,-836,748,16620,138,-311,-39
708000,-832,664,16600,98,-277,-4
710000,-840,688,16612,112,-310,-24
712000,-812,676,16652,137,-294,9
714000,-860,676,16588,97,-294,-9
716000,-868,672,16760,113,-316,2
718000,-884,684,16484,97,-292,1
720000,-832,696,16540,101,-312,-6
722000,-892,656,16712,109,-283,-12
724000,-776,692,16644,116,-304,-14
726004,-876,664,16684,113,-302,-15
728000,-876,700,16724,85,-304,-18
730000,-824,680,16680,122,-271,-23
732000,-836,652,16592,127,-252,-19
734000,-864,612,16608,91,-260,-16
736000,-888,708,16628,98,-269,-34
738000,-912,728,16820,112,-324,-45
740000,-852,632,16624,115,-312,-13
742000,-792,624,16600,89,-292,-58
744000,-792,660,16604,113,-285,-4
746000,-876,672,16700,125,-264,9
748004,-916,668,16636,100,-285,0
750000,-888,708,16512,116,-305,2
752004,-832,676,16652,95,-277,-16
754000,-860,644,16548,118,-298,-44
756000,-888,692,16620,110,-293,-12
758000,-936,648,16560,101,-308,3
760000,-876,700,16504,82,-317,-5
762000,-840,692,16616,92,-281,-27
764000,-896,612,16612,120,-314,4
766000,-896,628,16692,98,-323,-9
768000,-896,660,16716,99,-305,-25
770000,-832,648,16716,101,-282,-8
772000,-916,664,16652,100,-294,-4
774000,-920,676,16680,116,-300,-43
776000,-864,680,16552,137,-302,9
778000,-912,744,16576,142,-273,7
780000,-908,716,16576,103,-303,-16
782000,-820,688,16620,88,-303,-11
784000,-896,724,16632,118,-293,-13
786000,-848,676,16548,93,-298,-24
788000,-920,672,16612,129,-284,-18
790000,-896,668,16732,101,-256,15
792000,-920,720,16652,130,-303,-52
794000,-888,672,16544,123,-291,-24
796000,-920,704,16648,111,-316,3
798000,-880,668,16536,83,-279,19
800000,-860,720,16696,133,-295,-17
802000,-880,720,16656,130,-307,-15
804000,-808,716,16700,102,-301,10
806000,-868,696,16684,115,-313,-12
808000,-880,656,16660,105,-312,-49
810000,-820,608,16620,85,-258,8
812004,-856,652,16572,79,-287,2
814000,-820,640,16632,117,-306,6
816000,-840,704,16636,127,-323,-28
818000,-880,672,16556,105,-319,-30
820000,-896,644,16576,125,-299,-21
822000,-876,708,16640,110,-292,-23
824000,-988,684,16696,102,-287,-1
826000,-856,736,16664,114,-316,-29
828004,-832,656,16600,132,-276,1
830000,-800,664,16596,73,-317,-22
832000,-916,684,16664,152,-289,-19
834000,-852,668,16760,118,-327,-10
836000,-920,748,16624,123,-269,-39
838000,-920,744,16680,104,-279,-22
840000,-892,624,16660,93,-298,29
842000,-868,648,16604,114,-266,-20
844000,-828,644,16596,135,-273,-19
846000,-812,656,16728,127,-296,6
848000,-892,656,16688,113,-311,-22
850000,-876,732,16688,102,-329,-33
852000,-860,736,16608,84,-297,-17
854004,-808,672,16572,116,-246,-5
856000,-804,596,16624,125,-295,-28
858000,-900,712,16576,116,-308,-18
860000,-800,620,16548,88,-283,-16
862000,-816,672,16480,90,-316,3
864000,-884,684,16600,125,-309,19
866000,-828,660,16572,101,-296,-14
868000,-884,604,16532,114,-323,3
870000,-928,668,16624,121,-294,20
872000,-804,732,16592,83,-302,-27
874000,-880,640,16660,87,-280,11
876000,-912,664,16556,69,-314,-4
878000,-852,680,16748,103,-292,-46
880000,-844,684,16592,91,-258,-10
882000,-900,612,16696,124,-327,16
884000,-872,724,16720,107,-287,-2
886000,-916,672,16640,102,-271,-18
888000,-844,660,16628,112,-272,-38
890000,-836,672,16716,111,-281,8
892004,-860,696,16596,119,-296,-14
894000,-908,688,16676,102,-295,-42
896000,-872,748,16600,86,-315,35
898000,-896,584,16644,123,-338,-36
900000,-904,616,16664,143,-281,-50
902000,-924,676,16692,112,-323,-45
904000,-972,720,16600,116,-333,9
906000,-848,716,16588,90,-285,-22
908000,-860,688,16628,104,-287,-6
910000,-836,620,16540,133,-282,-25
912004,-904,672,16692,132,-276,-16
914000,-836,656,16636,114,-304,-41
916000,-840,632,16672,114,-317,-34
918000,-848,668,16588,86,-315,-13
920000,-820,708,16648,104,-296,-40
922000,-844,608,16652,102,-271,-9
924000,-916,668,16596,106,-310,-32
926000,-948,668,16568,87,-288,-2
928004,-876,648,16620,132,-303,-16
930000,-828,664,16588,111,-307,-19
932000,-856,680,16692,121,-283,-21
934000,-856,688,16676,111,-254,-20
936000,-888,672,16580,81,-267,1
938000,-912,696,16592,102,-288,-49
940000,-880,636,16676,101,-313,2
942000,-872,652,16624,110,-264,-27
944000,-896,704,16724,104,-294,-33
946000,-860,636,16676,117,-279,-1
948000,-852,664,16648,100,-309,-23
950000,-844,648,16624,96,-312,-11
952000,-832,676,16700,102,-306,0
954000,-816,668,16640,133,-328,-10
956004,-928,680,16664,107,-272,-7
958000,-864,688,16540,99,-272,-15
960000,-872,680,16700,110,-326,-31
962000,-856,684,16584,108,-278,-13
964000,-872,668,16632,109,-296,-15
966000,-844,644,16708,131,-296,-18
968000,-856,692,16576,91,-277,9
970000,-964,684,16568,119,-300,1
972000,-864,660,16700,85,-292,-20
974000,-900,608,16564,94,-319,-36
976000,-876,712,16716,109,-264,-29
978000,-844,696,16664,142,-278,-19
980000,-868,680,16632,114,-302,-3
982004,-844,636,16608,117,-269,-56
984000,-840,644,16652,121,-312,35
986000,-816,692,16488,108,-287,-25
988000,-804,644,16668,112,-269,-4
990000,-820,656,16680,139,-294,12
992000,-876,696,16712,104,-304,-28
994000,-872,716,16624,100,-325,-21
996000,-908,664,16600,98,-285,-6
998000,-836,628,16600,113,-288,-58
1000000,-852,604,16592,125,-245,-20
1002000,-908,664,16684,123,-269,-21
1004004,-932,672,16656,98,-311,-11
1006000,-844,732,16552,122,-304,0
1008004,-888,656,16604,105,-255,-29
1010000,-816,632,16564,106,-299,-24
1012000,-884,696,16600,130,-256,1
1014000,-868,684,16640,93,-272,-1
1016000,-896,700,16676,105,-313,-24
1018000,-848,732,16664,133,-289,-15
1020000,-856,752,16620,116,-321,8
1022000,-828,612,16728,108,-286,-37
1024000,-820,704,16668,120,-267,-15
1026000,-880,668,16604,104,-318,-21
1028000,-828,692,16632,104,-293,-31
1030000,-840,704,16536,114,-284,11
1032000,-812,668,16572,121,-294,-3
1034000,-908,672,16616,111,-292,-7
1036000,-844,680,16480,128,-264,-74
1038000,-944,692,16592,81,-270,-7
1040000,-888,672,16680,108,-358,-31
1042000,-852,672,16616,116,-295,-18
1044000,-860,636,16620,109,-311,2
1046000,-888,680,16636,116,-275,-35
1048000,-804,660,16688,80,-270,-18
1050000,-808,680,16664,124,-317,-14
1052000,-876,700,16628,120,-271,-13
1054000,-848,620,16604,106,-283,10
1056000,-852,608,16620,123,-307,11
1058000,-852,708,16596,105,-283,-32
1060000,-924,716,16500,88,-292,11
1062000,-876,644,16696,94,-313,-35
1064000,-848,608,16620,116,-295,-10
1066000,-872,648,16584,98,-284,-17
1068000,-844,620,16696,114,-281,-27
1070000,-956,640,16644,113,-255,-17
1072000,-892,628,16592,83,-284,-15
1074000,-872,680,16612,73,-281,-49
1076000,-808,716,16692,110,-300,-20
1078000,-860,668,16696,116,-325,-5
1080000,-860,696,16648,134,-283,-7
1082000,-880,740,16628,75,-302,-25
1084004,-912,708,16596,104,-296,0
1086000,-888,700,16596,99,-299,-38
1088000,-940,680,16620,149,-257,-6
1090000,-912,668,16696,111,-299,-6
1092000,-860,660,16576,95,-278,-30
1094000,-924,668,16572,103,-337,-34
1096000,-896,676,16536,129,-296,-8
1098000,-876,676,16684,148,-281,24
1100000,-828,604,16600,111,-296,-11
1102000,-804,612,16760,113,-294,-19
1104000,-904,752,16628,109,-305,-12
1106000,-912,696,16612,98,-310,-8
1108000,-820,672,16592,139,-269,2
1110004,-824,652,16700,136,-294,-6
1112000,-816,704,16624,128,-267,-37
1114000,-876,772,16604,70,-312,-25
1116000,-900,692,16524,90,-306,-2
1118000,-932,700,16692,120,-319,-20
1120000,-792,684,16584,113,-302,-9
1122000,-876,648,16660,136,-239,-9
1124000,-904,672,16696,122,-255,-7
1126000,-856,664,16708,113,-337,-42
1128000,-896,632,16584,87,-301,-8
1130000,-876,736,16692,151,-287,2
1132004,-900,696,16700,116,-305,0
1134000,-876,664,16624,126,-273,-10
1136000,-904,668,16672,101,-298,-2
1138004,-840,716,16640,113,-300,-42
1140000,-856,684,16644,104,-297,12
1142000,-836,644,16576,101,-301,-20
1144004,-928,692,16728,137,-301,-9
1146000,-804,680,16668,147,-296,-7
1148000,-884,696,16736,112,-335,-15
1150000,-788,676,16640,153,-291,-5
1152000,-896,632,16656,117,-307,-18
1154000,-856,644,16560,143,-330,-30
1156000,-860,664,16692,100,-309,-19
1158000,-824,592,16620,120,-282,-17
1160000,-840,696,16712,109,-305,-9
1162000,-940,704,16548,104,-322,-16
1164000,-932,704,16636,102,-301,10
1166000,-836,680,16648,113,-260,-35
1168000,-908,736,16620,133,-315,-31
1170000,-896,672,16700,116,-319,-19
1172000,-860,748,16644,114,-291,-18
1174000,-764,672,16460,109,-291,-23
1176000,-824,700,16620,109,-275,-1
1178000,-868,692,16620,107,-265,-11
1180000,-876,688,16692,85,-277,-3
1182000,-928,696,16628,91,-323,-18
1184000,-912,676,16584,94,-292,-25
1186000,-820,720,16516,124,-300,-11
1188000,-864,640,16604,129,-291,4
1190000,-896,652,16780,87,-276,-22
1192000,-820,724,16572,91,-285,-12
1194000,-848,700,16600,126,-308,-17
1196000,-864,680,16628,101,-299,-6
1198000,-868,652,16676,115,-283,-16
1200000,-844,632,16620,149,-277,-37
1202000,-868,628,16636,122,-270,-22
1204000,-876,680,16696,68,-300,-43
1206000,-872,660,16688,109,-329,-35
1208000,-852,652,16672,116,-305,-14
1210000,-860,676,16648,115,-288,7
1212004,-868,772,16620,129,-291,-6
1214000,-768,648,16628,113,-279,-24
1216000,-856,680,16564,104,-313,-21
1218000,-864,704,16616,152,-336,-27
1220000,-856,664,16580,144,-301,2
1222000,-876,704,16636,86,-280,-6
1224000,-848,664,16684,86,-310,6
1226000,-884,700,16516,119,-298,-19
1228000,-880,756,16588,125,-324,-27
1230000,-892,680,16664,100,-277,-7
1232000,-840,716,16620,102,-269,-21
1234000,-872,688,16652,118,-284,-44
1236000,-908,652,16592,135,-298,-26
1238000,-872,652,16580,99,-303,-15
1240000,-824,708,16600,71,-303,-3
1242000,-864,708,16668,135,-306,-37
1244000,-756,652,16692,109,-310,-37
1246000,-848,648,16648,109,-284,-8
1248000,-804,688,16752,136,-338,2
1250000,-884,724,16676,95,-307,-66
1252000,-800,668,16556,102,-280,6
1254000,-888,648,16564,99,-268,8
1256000,-848,680,16672,97,-319,1
1258000,-872,768,16772,126,-297,7
1260004,-936,708,16644,87,-305,-19
1262000,-888,700,16604,88,-301,13
1264000,-824,636,16632,110,-295,-30
1266004,-888,728,16608,97,-275,-28
1268000,-852,664,16628,122,-279,1
1270000,-876,668,16544,124,-273,-26
1272004,-860,676,16668,76,-305,-20
1274000,-832,704,16608,104,-295,-39
1276000,-876,676,16724,151,-311,-25
1278000,-828,656,16568,100,-279,-14
1280000,-824,708,16552,108,-285,-21
1282000,-868,708,16644,117,-284,-37
1284000,-832,704,16592,61,-306,-24
1286000,-884,660,16736,103,-284,-28
1288000,-804,644,16656,107,-250,-7
1290000,-856,676,16560,96,-273,-45
1292000,-868,736,16708,108,-310,8
1294000,-860,720,16628,112,-304,-20
1296000,-924,728,16704,68,-309,-10
1298000,-888,632,16536,83,-297,-2
1300000,-856,608,16708,110,-298,-10
1302000,-876,708,16660,102,-297,-6
1304000,-832,600,16584,100,-297,8
1306000,-924,660,16612,112,-307,-51
1308000,-932,696,16624,93,-299,-14
1310000,-836,624,16616,111,-300,-28
1312000,-848,680,16736,135,-312,-33
1314000,-932,720,16700,106,-297,-13
1316000,-884,688,16700,83,-302,-29
1318000,-832,712,16580,116,-291,-27
1320000,-852,668,16576,111,-312,-25
1322000,-832,704,16656,131,-312,-50
1324000,-876,664,16668,108,-293,-20
1326000,-848,736,16612,123,-299,-3
1328000,-876,660,16592,96,-322,-18
1330000,-860,652,16560,124,-341,16
1332000,-836,636,16668,131,-291,-32
1334000,-848,608,16680,79,-291,-10
1336000,-876,732,16620,76,-298,-7
1338000,-840,676,16624,120,-314,-16
1340004,-880,708,16640,138,-307,-32
1342000,-848,648,16628,114,-289,-7
1344000,-864,624,16576,116,-256,-12
1346000,-800,620,16704,112,-267,-18
1348000,-888,656,16584,107,-290,-9
1350000,-884,688,16668,93,-305,-40
1352000,-896,712,16552,90,-323,-14
1354004,-852,696,16600,144,-286,5
1356000,-860,644,16592,130,-267,14
1358000,-880,656,16648,92,-288,-10
1360000,-884,672,16608,125,-298,-8
1362000,-844,740,16556,77,-300,3
1364000,-860,680,16744,132,-299,-30
1366000,-896,652,16608,123,-314,8
1368004,-872,724,16636,98,-278,7
1370000,-944,724,16624,97,-301,9
1372000,-848,672,16588,85,-328,10
1374000,-952,764,16672,130,-319,-37
1376000,-844,636,16604,122,-299,-9
1378000,-848,684,16592,124,-298,-24
1380000,-832,744,16672,89,-314,-26
1382000,-932,660,16632,128,-315,-30
1384000,-864,680,16572,103,-289,7
1386000,-888,664,16660,120,-279,-13
1388004,-880,660,16620,132,-278,-9
1390000,-864,672,16664,127,-299,14
1392004,-876,708,16720,88,-332,-31
1394000,-852,740,16496,110,-286,-23
1396000,-848,668,16696,96,-308,-7
1398000,-936,640,16604,143,-319,2
1400000,-860,668,16544,118,-300,2
1402000,-880,700,16672,81,-276,9
1404000,-896,704,16684,132,-301,-3
1406000,-888,664,16640,124,-313,-54
1408000,-860,692,16584,89,-278,-31
1410000,-812,696,16512,98,-286,2
1412000,-920,684,16696,102,-310,5
1414000,-848,704,16648,121,-317,-43
1416000,-832,596,16672,111,-307,-31
1418000,-820,696,16672,105,-280,-25
1420000,-904,692,16572,112,-273,-8
1422000,-900,632,16592,100,-274,-8
1424000,-820,644,16612,129,-309,-9
1426000,-876,648,16576,86,-289,-29
1428000,-860,708,16556,107,-291,-9
1430000,-876,720,16564,108,-295,-27
1432000,-876,684,16544,100,-310,22
1434000,-888,664,16684,98,-282,6
1436000,-860,720,16516,124,-278,7
1438000,-856,672,16560,90,-324,-12
1440000,-848,700,16552,99,-287,-20
1442000,-868,620,16588,93,-270,3
1444000,-936,688,16656,122,-297,-17
1446000,-856,696,16588,139,-282,7
1448000,-868,680,16672,104,-274,-35
1450000,-868,696,16644,96,-303,-11
1452000,-876,632,16604,116,-300,-34
1454000,-828,656,16540,129,-260,-16
1456000,-836,648,16696,119,-296,16
1458000,-860,660,16604,113,-305,-21
1460000,-892,660,16588,112,-351,-32
1462000,-904,732,16624,119,-311,5
1464000,-916,696,16596,124,-306,8
1466000,-868,680,16684,116,-299,-6
1468004,-876,740,16624,137,-292,21
1470000,-884,772,16576,96,-315,-11
1472000,-932,660,16564,128,-301,-19
1474000,-908,628,16700,60,-282,-3
1476000,-840,656,16620,125,-294,-25
1478000,-872,692,16632,103,-256,-16
1480000,-844,660,16612,98,-284,-27
1482000,-892,716,16704,98,-277,-10
1484000,-900,680,16644,91,-287,-1
1486000,-864,692,16688,131,-308,5
1488000,-864,676,16624,120,-293,28
1490000,-948,684,16652,121,-239,-32
1492000,-912,652,16636,110,-269,-6
1494000,-860,696,16692,105,-307,-25
1496000,-872,764,16588,91,-289,11
1498000,-836,632,16676,106,-308,7
1500000,-804,652,16648,124,-284,4
1502000,-844,668,16532,143,-292,-27
1504000,-852,664,16536,121,-338,17
1506000,-876,684,16732,66,-310,-10
1508000,-812,640,16552,121,-270,-30
1510000,-812,636,16676,141,-276,-17
1512000,-828,592,16576,118,-310,-25
1514000,-840,620,16720,102,-250,-29
1516000,-808,640,16644,119,-260,-29
1518000,-924,688,16652,108,-292,-17
1520000,-860,664,16620,112,-312,-11
1522004,-824,600,16580,132,-305,1
1524000,-864,636,16672,103,-279,-28
1526000,-908,644,16588,96,-279,5
1528004,-888,668,16596,101,-336,1
1530000,-868,720,16676,104,-301,-49
1532000,-856,656,16732,113,-292,-5
1534000,-932,684,16676,109,-258,-22
1536000,-912,664,16692,129,-290,-37
1538000,-832,712,16692,109,-349,-2
1540000,-828,680,16600,97,-302,3
1542000,-884,668,16720,158,-293,-35
1544000,-900,660,16576,110,-324,10
1546000,-800,660,16632,102,-288,-7
1548000,-892,692,16584,97,-298,-4
1550000,-900,704,16596,124,-284,18
1552000,-880,700,16636,111,-320,-27
1554000,-892,680,16584,85,-311,8
1556000,-820,648,16628,127,-293,-36
1558000,-880,700,16672,101,-268,-3
1560000,-932,736,16632,106,-331,6
1562000,-844,676,16564,119,-321,-2
1564000,-856,620,16592,99,-317,-21
1566000,-884,644,16512,124,-323,5
1568000,-904,700,16616,135,-259,-5
1570000,-900,696,16664,96,-316,-15
1572000,-792,744,16676,109,-293,-26
1574000,-928,752,16680,128,-282,-1
1576000,-872,664,16620,98,-278,-16
1578000,-928,668,16640,93,-313,-6
1580000,-852,640,16544,125,-279,-26
1582000,-924,728,16632,111,-297,1
1584000,-836,720,16744,103,-313,-15
1586000,-856,704,16656,145,-292,-13
1588000,-828,636,16576,109,-287,10
1590000,-788,732,16616,93,-298,-33
1592000,-896,672,16660,130,-312,-27
1594000,-888,676,16636,112,-281,-24
1596004,-928,732,16552,94,-312,-7
1598000,-860,660,16632,86,-315,-10
1600000,-804,716,16692,115,-275,-16
1602000,-788,664,16644,124,-284,-49
1604000,-888,640,16696,107,-274,-1
1606000,-904,668,16692,116,-298,-28
1608000,-832,680,16596,104,-301,-30
1610004,-844,604,16580,125,-264,18
1612004,-916,648,16636,86,-257,-14
1614000,-824,688,16600,98,-305,-35
1616000,-872,660,16732,112,-307,-5
1618000,-796,644,16612,113,-305,10
1620000,-836,652,16656,102,-306,-32
1622004,-860,620,16556,92,-289,6
1624000,-864,616,16648,104,-310,-10
1626000,-892,620,16636,94,-286,7
1628004,-904,684,16700,70,-306,-1
1630000,-852,712,16632,136,-334,-4
1632000,-836,700,16628,97,-284,-8
1634000,-868,652,16580,96,-272,-31
1636000,-888,680,16628,120,-279,-20
1638000,-884,636,16636,88,-316,-8
1640000,-856,692,16652,110,-280,-27
1642000,-868,680,16580,106,-310,-5
1644000,-884,616,16584,141,-299,-33
1646000,-880,656,16644,134,-278,-6
1648004,-896,676,16680,97,-316,-31
1650000,-876,644,16640,93,-309,-4
1652000,-872,636,16588,103,-291,-28
1654000,-756,620,16588,125,-287,-8
1656000,-880,716,16592,98,-285,-21
1658000,-872,592,16652,95,-283,-30
1660000,-848,632,16652,126,-306,-26
1662000,-856,720,16644,89,-347,-21
1664000,-820,680,16616,91,-298,-8
1666000,-860,700,16692,129,-276,-41
1668000,-828,668,16648,149,-311,-36
1670000,-868,716,16640,94,-294,-1
1672000,-908,680,16704,105,-291,-22
1674000,-844,680,16552,109,-279,20
1676000,-880,684,16628,136,-293,-22
1678000,-840,688,16640,131,-283,-52
1680000,-840,620,16580,94,-297,-19
1682000,-888,708,16676,97,-294,-38
1684000,-876,664,16604,121,-326,-20
1686000,-888,672,16528,112,-295,12
1688000,-892,624,16688,144,-270,-19
1690000,-872,672,16716,118,-291,-20
1692000,-864,720,16704,88,-319,-8
1694000,-888,724,16640,122,-324,-31
1696004,-884,700,16628,102,-309,-7
1698000,-840,664,16572,143,-279,7
1700000,-872,628,16644,114,-301,2
1702000,-912,684,16712,110,-257,-14
1704004,-936,696,16664,127,-314,-35
1706000,-924,664,16620,64,-318,10
1708000,-844,712,16660,111,-303,-40
1710000,-860,660,16580,117,-308,14
1712000,-904,644,16632,109,-281,-67
1714000,-840,712,16640,110,-272,-11
1716000,-864,620,16688,104,-290,18
1718000,-876,708,16728,92,-334,-19
1720000,-884,720,16544,116,-310,-23
1722000,-888,712,16664,140,-272,-30
1724004,-920,616,16628,115,-298,-21
1726000,-880,752,16652,106,-340,-35
1728000,-856,744,16632,105,-295,-25
1730004,-832,696,16564,143,-269,-10
1732000,-876,628,16568,115,-349,-21
1734000,-832,668,16584,100,-295,0
1736000,-892,680,16584,141,-281,0
1738004,-848,720,16684,102,-274,-31
1740000,-908,596,16512,130,-329,-5
1742000,-880,672,16688,114,-298,-29
1744000,-852,612,16648,103,-294,-18
1746000,-852,692,16656,155,-274,-13
1748000,-824,736,16652,135,-289,-32
1750004,-880,672,16640,109,-311,-42
1752000,-872,664,16492,112,-327,-10
1754000,-872,656,16616,116,-293,-56
1756000,-876,648,16600,88,-285,-31
1758000,-864,604,16636,95,-285,5
1760000,-872,692,16492,116,-277,-19
1762000,-908,672,16568,112,-304,-11
1764000,-844,660,16624,121,-305,-33
1766000,-948,680,16620,146,-291,-1
1768000,-784,676,16616,110,-277,-40
1770000,-864,656,16516,109,-273,-35
1772004,-900,676,16632,94,-329,-20
1774000,-860,660,16540,91,-280,-29
1776000,-852,640,16608,130,-276,-4
1778004,-856,644,16592,100,-296,-24
1780000,-900,668,16648,83,-277,-2
1782000,-912,672,16576,120,-281,9
1784004,-852,668,16628,77,-312,-41
1786000,-868,648,16528,90,-286,8
1788000,-808,728,16620,120,-250,-19
1790000,-896,704,16696,131,-291,-17
1792000,-924,724,16668,92,-339,-2
1794000,-832,716,16564,100,-291,-27
1796000,-848,688,16584,95,-300,-19
1798000,-876,640,16632,89,-305,-26
1800000,-864,672,16640,134,-273,-6
1802000,-852,736,16732,110,-300,-37
1804004,-888,672,16692,117,-286,18
1806000,-824,720,16708,93,-335,8
1808000,-812,660,16540,85,-283,-19
1810000,-880,648,16540,121,-306,-11
1812000,-928,632,16720,110,-285,-30
1814000,-816,684,16648,85,-279,-10
1816000,-888,772,16648,84,-297,12
1818000,-868,700,16628,103,-265,5
1820000,-868,628,16640,100,-326,-21
1822000,-880,636,16608,157,-285,-26
1824000,-896,656,16640,94,-278,-8
1826000,-852,712,16628,93,-300,-6
1828000,-880,704,16600,104,-308,10
1830000,-848,696,16632,118,-285,-25
1832000,-864,588,16488,135,-276,-6
1834000,-884,724,16692,111,-281,-15
1836000,-860,652,16644,97,-282,-7
1838000,-828,708,16640,124,-320,-26
1840000,-876,764,16560,105,-311,19
1842000,-836,688,16512,119,-303,-21
1844000,-840,704,16736,109,-287,-38
1846000,-800,696,16684,152,-245,-22
1848000,-820,792,16680,92,-291,5
1850000,-844,688,16712,89,-314,-36
1852004,-908,664,16620,93,-292,-18
1854000,-856,628,16504,112,-257,-7
1856000,-860,588,16588,125,-284,-9
1858000,-780,684,16644,119,-275,-2
1860000,-928,676,16620,92,-302,-1
1862000,-932,684,16568,92,-324,-18
1864000,-904,688,16496,108,-300,-24
1866000,-840,660,16716,125,-267,-26
1868000,-812,628,16528,127,-306,-4
1870000,-852,700,16664,80,-286,-20
1872000,-856,700,16692,114,-307,8
1874000,-916,692,16712,107,-306,7
1876000,-880,620,16596,134,-272,17
1878000,-916,656,16740,128,-285,-15
1880000,-876,664,16616,125,-303,-22
1882000,-880,672,16732,83,-307,4
1884000,-864,684,16720,111,-289,-2
1886000,-840,640,16692,123,-308,7
1888000,-884,720,16640,136,-322,-26
1890000,-856,668,16628,123,-274,-11
1892000,-900,680,16652,96,-298,1
1894000,-912,696,16604,97,-317,5
1896000,-912,696,16648,139,-284,-1
1898000,-860,640,16628,80,-294,11
1900000,-824,644,16620,135,-311,-17
1902000,-840,616,16600,119,-283,-19
1904000,-944,692,16640,117,-290,-19
1906004,-900,720,16632,93,-328,-42
1908000,-912,664,16580,75,-313,-10
1910000,-904,668,16560,109,-297,-20
1912004,-864,624,16624,131,-272,-14
1914000,-876,676,16632,104,-267,-27
1916000,-832,652,16668,132,-312,-30
1918000,-820,632,16572,103,-293,-27
1920000,-876,728,16508,126,-321,-8
1922000,-856,648,16640,136,-292,-36
1924004,-884,692,16600,126,-269,-30
1926000,-860,636,16588,102,-303,18
1928000,-868,680,16612,80,-328,-30
1930000,-860,712,16672,84,-330,-5
1932000,-872,648,16652,122,-289,-31
1934000,-808,628,16636,144,-304,-14
1936000,-876,672,16708,100,-308,29
1938000,-848,624,16656,82,-341,6
1940000,-840,772,16580,99,-330,27
1942004,-844,652,16588,119,-274,1
1944000,-788,688,16608,116,-301,7
1946000,-892,608,16568,117,-246,-18
1948000,-868,720,16600,109,-293,-4
1950000,-848,648,16668,77,-285,-29
1952004,-812,652,16676,94,-310,10
1954000,-820,684,16680,153,-302,-22
1956000,-872,696,16620,131,-284,-18
1958000,-848,696,16672,76,-287,-27
1960000,-872,688,16580,115,-258,-11
1962000,-892,636,16656,79,-318,10
1964000,-892,616,16548,115,-298,-14
1966000,-872,660,16584,124,-281,-10
1968000,-900,588,16496,127,-279,-12
1970000,-968,624,16676,90,-299,-30
1972000,-832,672,16640,118,-333,-18
1974000,-864,628,16644,117,-330,-10
1976000,-820,656,16660,135,-283,-8
1978000,-816,708,16648,131,-345,-4
1980004,-844,620,16716,119,-276,-7
1982000,-824,672,16668,104,-309,-11
1984000,-816,744,16600,89,-298,-22
1986000,-864,652,16596,99,-301,2
1988000,-788,672,16556,124,-280,-26
1990004,-868,716,16704,110,-287,-29
1992000,-900,728,16636,95,-328,8
1994000,-880,716,16644,99,-258,0
1996000,-848,676,16656,110,-303,-37
1998000,-836,620,16644,72,-282,-14
2000000,-952,620,16684,114,-291,-15
2002000,-868,676,16640,112,-296,-17
2004000,-844,736,16704,108,-273,-16
2006000,-892,696,16632,127,-286,-46
2008000,-828,628,16564,96,-320,-18
2010000,-808,680,16636,113,-288,-15
2012000,-848,640,16560,132,-272,-5
2014000,-824,736,16736,105,-300,-35
2016000,-840,732,16712,104,-309,-35
2018000,-912,708,16600,98,-274,-30
2020000,-900,604,16616,146,-264,-62
2022000,-944,576,16632,101,-285,-34
2024000,-904,632,16576,130,-286,3
2026000,-876,672,16564,132,-321,-10
2028000,-904,708,16684,85,-287,-5
2030000,-856,644,16636,117,-308,-17
2032000,-944,644,16608,105,-270,1
2034004,-876,648,16536,108,-290,-39
2036000,-892,604,16584,77,-306,-25
2038000,-788,696,16584,89,-315,-7
2040004,-808,704,16532,114,-312,-3
2042000,-800,664,16684,100,-288,-13
2044000,-836,680,16692,116,-280,1
2046000,-864,672,16640,126,-290,-1
2048000,-880,752,16612,115,-309,4
2050000,-888,744,16524,103,-297,-35
2052000,-860,652,16596,91,-305,-19
2054000,-824,680,16708,129,-291,19
2056000,-920,672,16572,120,-290,-9
2058000,-864,680,16664,106,-313,-17
2060000,-836,652,16544,123,-290,-6
2062000,-880,688,16668,100,-321,-49
2064000,-832,640,16632,100,-304,-21
2066000,-868,616,16696,87,-300,-28
2068000,-880,728,16564,138,-332,-19
2070000,-824,672,16676,111,-289,-8
2072000,-908,740,16624,114,-276,-32
2074000,-852,676,16600,124,-305,-43
2076000,-840,636,16640,100,-289,8
2078000,-860,664,16636,99,-290,-12
2080000,-872,708,16664,126,-287,-12
2082000,-860,660,16680,93,-309,-15
2084000,-852,600,16604,92,-344,-4
2086000,-872,600,16568,106,-290,-9
2088000,-796,640,16584,111,-250,-14
2090000,-860,632,16660,98,-314,9
2092000,-880,704,16660,102,-287,8
2094000,-900,672,16552,65,-314,-16
2096000,-844,700,16508,118,-277,-31
2098000,-900,680,16668,111,-314,-13
2100000,-900,632,16600,126,-302,-31
2102000,-864,640,16624,106,-271,-40
2104000,-820,644,16684,110,-252,-3
2106000,-864,640,16616,120,-360,-9
2108004,-852,700,16660,88,-293,-27
2110000,-864,700,16536,104,-267,-7
2112000,-832,644,16596,102,-315,-42
2114000,-876,644,16652,115,-296,-11
2116000,-944,680,16560,87,-298,8
2118000,-748,676,16624,126,-278,-39
2120000,-840,648,16536,108,-298,12
2122004,-868,656,16568,115,-290,-28
2124000,-868,616,16684,71,-271,-1
2126000,-952,636,16584,100,-278,-4
2128000,-848,644,16624,121,-317,0
2130000,-868,664,16720,128,-318,-20
2132000,-860,688,16584,88,-293,-4
2134004,-872,724,16612,106,-284,-32
2136000,-812,744,16736,122,-291,-10
2138000,-876,652,16708,119,-297,-2
2140004,-916,692,16720,75,-307,-1
2142000,-860,684,16624,118,-257,-12
2144000,-836,640,16620,117,-281,-25
2146000,-908,752,16696,115,-282,-34
2148000,-928,708,16652,133,-281,-19
2150000,-852,640,16668,88,-304,-13
2152000,-868,660,16624,115,-306,1
2154000,-844,656,16696,129,-261,-29
2156000,-820,708,16644,94,-300,-15
2158000,-876,656,16660,115,-294,-15
2160004,-840,716,16604,123,-310,14
2162000,-860,704,16568,124,-281,-33
2164000,-904,640,16604,66,-351,-40
2166000,-804,644,16596,151,-296,-20
2168000,-836,648,16488,77,-247,17
2170000,-876,652,16740,113,-285,-12
2172004,-908,656,16700,133,-316,-26
2174000,-868,632,16636,100,-286,-32
2176000,-868,696,16612,97,-312,-19
2178004,-752,644,16580,122,-305,-17
2180000,-924,688,16692,128,-301,-20
2182000,-888,708,16552,82,-295,0
2184000,-860,632,16584,109,-297,-8
2186000,-856,684,16656,129,-298,-30
2188000,-872,608,16704,113,-303,-30
2190000,-876,676,16588,132,-283,5
2192000,-932,680,16696,132,-311,23
2194000,-836,712,16608,85,-310,-2
2196000,-828,648,16492,105,-277,-17
2198000,-864,668,16624,111,-303,-21
2200000,-848,612,16576,85,-269,-7
2202000,-896,696,16596,109,-319,-54
2204000,-812,676,16564,101,-301,-25
2206000,-904,648,16600,121,-324,-17
2208004,-884,692,16700,113,-286,-22
2210000,-824,688,16564,124,-276,-27
2212000,-836,712,16612,109,-261,-27
2214000,-808,724,16680,61,-281,-37
2216000,-856,604,16656,126,-324,-31
2218000,-884,684,16620,99,-346,-3
2220000,-808,640,16668,118,-272,-7
2222000,-840,604,16680,94,-281,-5
2224000,-796,684,16656,147,-287,-19
2226000,-920,648,16612,123,-307,-31
2228000,-916,640,16628,102,-301,-47
2230000,-860,644,16632,87,-300,-30
2232000,-820,608,16568,84,-258,-7
2234000,-828,648,16616,111,-291,-10
2236004,-864,628,16600,92,-308,-38
2238000,-844,696,16608,115,-273,-21
2240000,-876,728,16536,96,-302,-12
2242000,-820,664,16636,128,-266,-5
2244000,-912,676,16664,92,-275,-3
2246000,-900,672,16728,99,-237,-35
2248000,-872,680,16692,108,-304,-16
2250000,-848,684,16672,94,-298,14
2252000,-924,708,16636,125,-300,-4
2254000,-852,660,16604,98,-326,-36
2256000,-828,668,16592,89,-311,22
2258000,-900,736,16612,114,-280,-28
2260000,-924,720,16532,105,-321,-10
2262000,-876,676,16560,103,-298,-12
2264000,-868,736,16672,108,-269,-33
2266000,-904,720,16700,133,-278,-6
2268000,-872,648,16664,123,-256,9
2270000,-860,784,16620,92,-312,-25
2272000,-892,748,16752,92,-296,-21
2274000,-868,768,16524,133,-331,-28
2276000,-828,740,16652,109,-285,-19
2278000,-880,680,16668,107,-283,-32
2280000,-804,696,16680,122,-277,-16
2282000,-832,680,16572,127,-316,-23
2284000,-848,676,16464,83,-301,-1
2286000,-860,712,16644,86,-309,-26
2288000,-760,620,16648,91,-303,-16
2290004,-892,592,16624,97,-290,-10
2292000,-868,652,16516,137,-274,-43
2294000,-892,616,16640,70,-297,15
2296000,-836,624,16572,103,-317,-47
2298000,-804,620,16604,109,-284,-20
2300000,-852,664,16592,107,-282,-21
2302000,-836,624,16720,91,-290,-32
2304000,-852,688,16596,91,-285,-36
2306000,-896,588,16636,101,-330,-19
2308000,-868,640,16632,134,-324,-18
2310000,-808,632,16680,107,-316,10
2312000,-832,708,16712,146,-275,-3
2314000,-908,696,16700,101,-289,-23
2316000,-912,712,16556,92,-272,9
2318000,-848,628,16664,88,-307,-30
2320000,-868,636,16548,140,-303,0
2322000,-900,672,16564,131,-257,-31
2324000,-872,684,16552,115,-316,-21
2326000,-884,748,16708,100,-268,7
2328000,-916,708,16556,105,-305,-26
2330000,-888,656,16612,119,-281,-20
2332000,-880,732,16652,127,-310,-1
2334000,-856,680,16608,118,-313,-10
2336004,-860,728,16512,90,-291,-9
2338000,-852,724,16700,112,-304,-39
2340000,-904,720,16572,140,-298,-19
2342000,-948,660,16592,84,-314,16
2344004,-880,696,16608,141,-286,-26
2346000,-936,676,16708,106,-289,-8
2348000,-920,720,16708,106,-269,-6
2350000,-916,744,16676,116,-290,-39
2352000,-880,732,16696,110,-304,-16
2354000,-884,644,16640,135,-276,-3
2356000,-896,704,16656,123,-316,-13
2358000,-884,700,16668,94,-290,-22
2360000,-888,624,16736,124,-289,-31
2362000,-844,600,16700,125,-316,-11
2364004,-916,668,16624,94,-322,-16
2366000,-848,624,16620,144,-262,-2
2368000,-820,608,16616,121,-258,-28
2370000,-888,624,16684,87,-282,-5
2372004,-900,624,16672,83,-286,12
2374000,-856,676,16628,61,-266,-3
2376000,-884,644,16596,79,-323,-14
2378000,-840,644,16696,107,-304,-1
2380000,-820,716,16632,104,-288,8
2382000,-816,644,16696,126,-295,-37
2384000,-840,628,16608,106,-337,-30
2386000,-820,688,16552,117,-298,-27
2388000,-864,696,16596,119,-296,-21
2390000,-880,672,16672,125,-282,-1
2392000,-892,628,16568,104,-286,-19
2394000,-844,696,16680,107,-316,-19
2396000,-824,672,16664,112,-302,-14
2398000,-840,660,16680,95,-263,17
2400000,-836,636,16648,129,-302,-23
2402000,-868,724,16692,113,-301,6
2404000,-888,712,16656,100,-281,-27
2406000,-852,724,16540,87,-287,-26
2408000,-828,684,16628,128,-283,-13
2410000,-824,696,16596,106,-293,4
2412000,-892,688,16616,116,-311,-14
2414000,-852,672,16676,91,-273,-24
2416000,-936,772,16680,83,-295,-6
2418000,-884,624,16596,116,-313,4
2420000,-904,668,16600,102,-305,-13
2422000,-864,672,16640,102,-277,-44
2424004,-860,736,16652,93,-308,14
2426000,-864,712,16652,132,-290,-3
2428000,-912,688,16640,95,-312,-7
2430000,-868,744,16648,82,-320,-23
2432000,-876,688,16624,112,-284,-23
2434000,-836,680,16668,122,-261,-23
2436000,-904,724,16728,119,-310,36
2438000,-912,644,16592,97,-323,-56
2440000,-896,728,16608,96,-330,-26
2442000,-872,672,16592,126,-310,-38
2444000,-812,712,16552,123,-283,-8
2446000,-888,624,16720,106,-276,-12
2448000,-908,720,16604,127,-303,-26
2450000,-896,732,16648,113,-315,2
2452000,-800,672,16652,103,-279,4
2454000,-860,712,16624,115,-296,10
2456000,-892,656,16644,98,-309,18
2458000,-796,664,16628,103,-315,-11
2460000,-848,720,16668,73,-316,-12
2462000,-884,724,16536,132,-293,-19
2464000,-832,636,16664,87,-304,-34
2466000,-812,612,16636,112,-295,-33
2468000,-840,660,16712,140,-282,5
2470000,-828,636,16608,89,-303,-16
2472000,-856,720,16584,103,-285,-18
2474000,-900,720,16556,100,-312,-24
2476000,-848,668,16572,84,-296,-23
2478000,-888,620,16696,137,-293,-33
2480000,-832,652,16540,113,-288,-48
2482000,-864,728,16636,118,-275,-31
2484000,-852,712,16704,100,-316,3
2486000,-860,648,16684,116,-295,-39
2488000,-872,648,16680,109,-311,-40
2490004,-852,704,16740,142,-289,-1
2492004,-864,712,16668,77,-263,-21
2494000,-924,692,16568,102,-272,-28
2496000,-880,692,16696,92,-318,-25
2498000,-900,676,16528,97,-327,3
2500000,-836,684,16668,102,-270,-39
2502000,-872,676,16620,123,-276,-21
2504000,-848,732,16648,108,-290,-26
2506000,-900,696,16652,78,-322,-31
2508000,-836,752,16636,155,-300,-10
2510000,-856,672,16572,114,-300,-28
2512000,-920,668,16632,115,-264,-33
2514000,-912,748,16672,117,-320,-11
2516000,-852,700,16568,103,-342,6
2518004,-840,696,16572,96,-312,-24
2520000,-868,652,16584,101,-355,-7
2522000,-876,652,16608,113,-308,-9
2524000,-856,676,16688,159,-243,-13
2526000,-852,644,16564,99,-323,32
2528000,-788,688,16568,71,-316,-60
2530000,-884,672,16628,77,-265,3
2532000,-904,640,16572,120,-272,-7
2534000,-832,680,16804,130,-320,16
2536000,-884,704,16688,92,-299,3
2538000,-896,656,16636,96,-300,7
2540000,-868,696,16664,77,-300,-3
2542000,-832,656,16656,95,-322,-28
2544000,-856,604,16704,130,-273,-19
2546000,-852,644,16636,107,-290,22
2548000,-888,684,16604,99,-317,-39
2550000,-888,728,16552,77,-333,-36
2552004,-876,640,16540,103,-314,12
2554000,-848,664,16668,101,-309,-18
2556000,-788,680,16524,116,-291,12
2558000,-844,652,16616,129,-300,9
2560000,-796,680,16528,136,-266,-30
2562000,-832,720,16692,111,-320,4
2564000,-864,636,16692,142,-291,-24
2566000,-900,604,16632,119,-291,-27
2568000,-852,664,16560,119,-262,-10
2570000,-904,768,16448,104,-303,-29
2572000,-920,700,16516,112,-289,-11
2574000,-900,684,16656,110,-304,-30
2576000,-872,696,16608,104,-313,-32
2578000,-836,620,16724,141,-277,-22
2580000,-924,696,16580,110,-270,8
2582000,-872,680,16656,71,-298,-1
2584000,-884,656,16556,121,-307,-3
2586000,-864,704,16624,73,-265,0
2588000,-912,668,16596,138,-310,-23
2590000,-892,632,16604,111,-290,-22
2592000,-828,640,16664,106,-294,7
2594000,-904,692,16572,98,-325,-5
2596000,-924,664,16612,104,-300,-25
2598000,-948,668,16728,116,-261,-5
2600000,-896,692,16640,146,-300,13
2602000,-884,688,16720,139,-293,-47
2604000,-820,744,16572,105,-338,4
2606000,-952,712,16556,55,-339,-15
2608000,-852,620,16572,69,-283,3
2610000,-888,688,16656,123,-277,-26
2612000,-888,680,16604,119,-281,-5
2614000,-868,628,16672,89,-295,-41
2616000,-908,640,16600,83,-297,-28
2618000,-848,672,16712,103,-295,-26
2620004,-892,628,16632,97,-340,-12
2622000,-776,668,16636,103,-281,-28
2624000,-880,716,16704,118,-299,10
2626000,-876,696,16680,101,-277,-4
2628000,-900,716,16496,114,-329,-31
2630000,-908,692,16516,109,-293,-19
2632000,-840,652,16728,92,-295,-23
2634004,-896,644,16612,119,-283,-8
2636000,-888,684,16632,109,-298,-16
2638000,-852,708,16664,94,-295,-8
2640000,-864,700,16584,114,-305,-18
2642000,-876,708,16592,109,-284,-21
2644000,-848,636,16668,112,-279,-12
2646004,-892,692,16676,109,-269,-45
2648000,-912,696,16668,153,-245,-39
2650000,-856,716,16684,94,-344,6
2652004,-856,616,16552,96,-307,-14
2654000,-840,684,16696,100,-285,-20
2656000,-904,660,16612,122,-292,-26
2658000,-868,724,16620,108,-315,-15
2660000,-840,760,16656,75,-290,18
2662000,-812,712,16652,115,-315,-31
2664000,-880,696,16576,124,-292,18
2666000,-856,676,16628,122,-295,-7
2668000,-912,760,16556,111,-276,10
2670000,-924,680,16676,114,-302,-36
2672000,-852,676,16568,104,-290,-31
2674000,-872,736,16700,90,-304,9
2676000,-900,600,16520,135,-309,-28
2678000,-908,684,16532,99,-304,-9
2680000,-876,680,16584,79,-293,-9
2682000,-864,696,16592,78,-291,-7
2684000,-912,688,16672,92,-288,-37
2686000,-924,664,16548,89,-314,-12
2688000,-816,640,16596,114,-278,-28
2690000,-884,660,16660,102,-261,-41
2692000,-876,680,16672,100,-300,0
2694000,-908,736,16636,137,-304,-18
2696000,-824,672,16608,106,-307,-18
2698000,-896,660,16648,98,-285,-40
2700000,-832,656,16632,122,-304,-31
2702000,-900,680,16664,102,-319,-25
2704000,-820,732,16532,96,-263,-34
2706000,-868,660,16568,123,-309,-13
2708000,-868,616,16592,87,-328,-10
2710000,-784,628,16632,131,-283,-23
2712000,-848,596,16704,120,-291,11
2714000,-836,660,16628,80,-287,-15
2716000,-864,616,16620,96,-275,6
2718000,-900,600,16652,133,-261,-16
2720000,-776,704,16600,121,-311,-13
2722000,-852,612,16668,80,-310,15
2724000,-884,672,16676,112,-258,-7
2726000,-812,704,16652,164,-316,-4
2728000,-840,744,16608,124,-284,-22
2730000,-908,652,16588,89,-298,-11
2732000,-852,640,16664,99,-299,11
2734000,-936,636,16608,146,-268,-27
2736000,-836,672,16612,100,-315,-9
2738000,-840,660,16608,98,-283,-2
2740000,-920,736,16520,163,-280,-13
2742000,-884,640,16640,98,-313,-5
2744004,-812,632,16716,120,-278,-35
2746000,-892,692,16616,111,-279,-8
2748004,-928,680,16628,105,-288,3
2750000,-888,708,16620,110,-295,-18
2752000,-896,672,16592,132,-334,-12
2754000,-816,616,16620,104,-302,-8
2756000,-860,680,16696,120,-334,-3
2758000,-940,656,16600,143,-303,-48
2760000,-832,740,16588,118,-293,-22
2762004,-904,676,16632,82,-286,-6
2764000,-892,776,16620,93,-332,-30
2766000,-928,712,16640,82,-298,-55
2768000,-836,748,16640,120,-294,0
2770000,-876,756,16604,110,-321,7
2772000,-856,732,16660,116,-279,-10
2774004,-860,684,16628,104,-306,-37
2776000,-860,688,16528,102,-287,5
2778000,-844,704,16664,122,-266,1
2780004,-912,656,16612,85,-281,0
2782000,-852,664,16644,120,-293,-49
2784000,-892,676,16580,110,-328,-6
2786000,-896,644,16608,106,-279,6
2788000,-896,696,16680,88,-267,-38
2790000,-908,700,16588,131,-282,10
2792000,-876,620,16704,80,-298,-10
2794000,-928,688,16568,104,-320,-9
2796000,-880,628,16704,128,-310,-28
2798000,-876,696,16608,100,-279,-10
2800000,-924,704,16704,141,-277,-5
2802000,-796,740,16608,133,-295,-46
2804000,-852,688,16684,118,-319,-44
2806000,-872,704,16620,84,-319,-16
2808000,-844,676,16552,117,-266,-7
2810000,-856,616,16612,120,-271,-5
2812004,-848,652,16556,120,-265,-7
2814000,-884,648,16608,95,-282,-33
2816000,-852,668,16596,132,-258,-25
2818000,-872,688,16640,89,-315,-25
2820000,-888,620,16680,137,-307,-13
2822000,-896,656,16700,125,-281,-30
2824000,-840,692,16636,116,-263,-52
2826000,-872,692,16688,128,-349,10
2828000,-852,660,16572,67,-310,-3
2830000,-892,620,16520,93,-280,-34
2832004,-884,632,16600,79,-325,-5
2834000,-836,708,16624,104,-310,-3
2836000,-900,628,16728,126,-293,-13
2838000,-824,664,16652,124,-316,-34
2840000,-872,716,16556,120,-308,-14
2842000,-820,700,16440,105,-285,-34
2844000,-772,696,16508,133,-293,-14
2846000,-876,732,16720,124,-286,-33
2848004,-848,760,16668,81,-257,-33
2850000,-868,720,16632,122,-280,13
2852000,-864,632,16604,126,-294,-23
2854000,-868,696,16596,80,-315,-23
2856000,-880,696,16556,101,-274,-33
2858000,-860,716,16588,111,-290,-14
2860000,-848,672,16648,60,-290,-26
2862000,-888,676,16552,110,-256,-40
2864000,-856,684,16548,125,-297,-29
2866000,-968,684,16632,81,-266,-7
2868000,-900,688,16628,110,-314,-22
2870000,-856,592,16660,139,-278,-9
2872000,-964,672,16680,105,-292,-25
2874000,-960,664,16620,131,-303,-12
2876004,-944,656,16616,98,-327,-3
2878000,-812,644,16668,97,-284,0
2880000,-892,756,16644,113,-295,-31
2882000,-896,756,16604,110,-304,3
2884000,-960,672,16568,88,-293,1
2886000,-924,700,16608,83,-318,-14
2888000,-812,716,16616,137,-280,-58
2890000,-900,700,16708,128,-310,16
2892000,-768,712,16580,95,-347,14
2894000,-836,684,16664,87,-294,-14
2896000,-836,692,16724,139,-303,-21
2898000,-844,628,16676,107,-296,-9
2900000,-892,708,16748,93,-302,8
2902000,-796,696,16684,130,-294,-20
2904000,-864,696,16616,137,-305,-18
2906000,-880,672,16676,84,-279,3
2908000,-912,632,16540,117,-293,-3
2910000,-844,692,16728,114,-255,-7
2912000,-844,716,16652,116,-279,-40
2914000,-896,656,16680,131,-303,26
2916000,-936,720,16628,128,-307,-17
2918000,-840,648,16632,126,-283,-17
2920000,-868,720,16680,102,-289,-21
2922000,-940,640,16764,121,-294,-49
2924004,-908,640,16736,131,-330,2
2926000,-860,688,16584,93,-290,-11
2928000,-920,692,16676,120,-290,-3
2930004,-840,648,16552,95,-318,15
2932000,-876,712,16624,135,-303,7
2934000,-820,632,16684,98,-294,-8
2936004,-844,656,16628,84,-321,-21
2938000,-860,704,16744,130,-301,-14
2940000,-968,656,16596,112,-305,-38
2942000,-832,688,16672,144,-290,-3
2944000,-876,676,16584,68,-291,-22
2946000,-836,664,16636,140,-274,-37
2948000,-860,664,16664,130,-298,-15
2950000,-880,716,16704,95,-287,20
2952000,-892,692,16580,98,-300,-43
2954000,-816,616,16680,107,-285,-10
2956000,-932,680,16676,99,-281,-10
2958000,-860,656,16648,121,-300,-13
2960000,-868,648,16680,83,-288,-33
2962000,-892,656,16632,104,-306,-17
2964000,-840,656,16644,107,-300,2
2966000,-856,660,16676,122,-299,11
2968000,-888,704,16664,108,-295,-44
2970000,-912,680,16652,98,-303,10
2972000,-844,716,16624,106,-313,-25
2974000,-852,680,16668,113,-340,-23
2976000,-880,668,16676,101,-300,-10
2978000,-908,672,16672,115,-292,-23
2980000,-880,684,16664,94,-317,-30
2982000,-892,716,16696,84,-293,-44
2984004,-872,708,16668,103,-333,-7
2986000,-876,704,16648,104,-315,-32
2988000,-840,640,16556,103,-302,-27
2990000,-808,676,16604,127,-304,-7
2992000,-860,612,16568,124,-284,15
2994000,-876,728,16648,115,-298,-28
2996000,-928,652,16628,101,-302,-8
2998000,-908,700,16684,120,-269,-5
3000000,-828,608,16616,132,-284,4
3002000,-876,608,16692,91,-317,-20
3004004,-856,660,16556,92,-272,-44
3006000,-812,640,16588,111,-321,-18
3008000,-900,680,16556,90,-308,-23
3010004,-888,616,16572,115,-283,-30
3012000,-892,644,16716,94,-297,-3
3014000,-872,668,16668,94,-335,-19
3016000,-892,652,16688,94,-306,-11
3018000,-900,700,16680,121,-313,-6
3020000,-828,672,16724,127,-298,-44
3022000,-960,668,16672,108,-281,1
3024000,-856,704,16648,126,-312,4
3026000,-812,720,16600,112,-251,-20
3028000,-900,748,16640,93,-295,-5
3030004,-884,724,16520,112,-313,30
3032000,-888,664,16636,135,-298,-25
3034000,-896,708,16628,132,-283,-41
3036000,-868,652,16624,75,-300,-23
3038004,-860,712,16636,108,-282,2
3040000,-872,688,16680,109,-303,-39
3042000,-892,652,16632,107,-308,-29
3044000,-952,736,16592,95,-245,-7
3046000,-908,628,16576,117,-265,-2
3048000,-832,664,16704,79,-297,-7
3050000,-920,676,16684,73,-307,-4
3052004,-928,708,16580,92,-309,-24
3054000,-864,664,16596,145,-295,4
3056000,-888,716,16568,110,-283,-36
3058004,-852,672,16684,130,-306,12
3060000,-772,676,16672,101,-270,-32
3062000,-888,632,16572,131,-300,-7
3064004,-804,652,16572,108,-295,20
3066000,-772,612,16520,85,-289,-40
3068000,-864,664,16700,118,-294,-37
3070000,-820,624,16604,112,-299,-21
3072000,-788,660,16600,112,-311,26
3074000,-912,636,16640,106,-293,-37
3076000,-876,620,16556,82,-277,-33
3078000,-888,720,16668,110,-247,-15
3080000,-852,624,16628,97,-272,-15
3082000,-872,644,16736,90,-322,-39
3084000,-856,660,16628,138,-293,-15
3086000,-872,676,16516,107,-340,-41
3088000,-840,668,16740,114,-274,-18
3090000,-824,652,16612,110,-297,-18
3092000,-868,612,16608,137,-286,-49
3094000,-896,708,16680,123,-278,0
3096000,-860,688,16556,90,-314,-30
3098000,-876,632,16652,114,-304,-31
3100000,-904,684,16584,126,-297,17
3102000,-924,680,16560,111,-282,-4
3104000,-832,676,16656,109,-289,-8
3106000,-900,740,16576,111,-295,12
3108000,-880,644,16596,97,-295,-25
3110000,-844,684,16588,93,-311,9
3112000,-888,764,16556,131,-237,-18
3114000,-848,656,16620,98,-263,-18
3116000,-868,724,16700,111,-311,-1
3118000,-856,648,16660,97,-315,-6
3120000,-908,652,16644,136,-307,-27
3122000,-828,672,16676,120,-321,-16
3124000,-904,676,16656,110,-278,-23
3126000,-896,644,16700,141,-304,-17
3128000,-860,688,16684,105,-288,29
3130000,-840,676,16680,128,-313,-23
3132004,-892,604,16620,122,-314,-10
3134000,-856,616,16632,91,-303,-35
3136000,-896,672,16752,100,-303,-9
3138000,-868,676,16640,136,-310,12
3140000,-896,672,16476,120,-294,-13
3142000,-820,656,16564,132,-319,-24
3144000,-820,636,16624,115,-309,-31
3146000,-904,720,16576,128,-303,-41
3148000,-868,676,16632,120,-282,-54
3150000,-856,692,16616,81,-286,-34
3152000,-912,676,16612,96,-314,-30
3154000,-884,680,16648,122,-314,11
3156000,-804,604,16700,111,-275,-31
3158000,-840,700,16716,116,-282,-32
3160000,-904,688,16688,117,-312,-21
3162000,-888,692,16584,102,-312,6
3164000,-880,696,16660,141,-299,-34
3166000,-844,700,16708,118,-262,-28
3168000,-840,680,16600,112,-294,-1
3170000,-916,744,16576,100,-271,-42
3172000,-856,672,16588,82,-278,8
3174000,-864,652,16636,110,-343,-10
3176000,-888,680,16540,144,-300,-30
3178000,-852,628,16568,110,-294,-2
3180000,-896,696,16580,111,-285,-7
3182000,-908,660,16588,117,-298,-16
3184004,-928,676,16548,101,-293,-10
3186000,-888,688,16552,109,-295,-15
3188000,-840,644,16680,144,-276,-13
3190000,-848,656,16704,111,-273,5
3192000,-844,744,16656,97,-323,27
3194000,-848,748,16692,106,-307,3
3196000,-844,720,16628,75,-295,-7
3198000,-816,688,16712,98,-304,2
3200000,-872,648,16696,107,-307,-4
3202000,-888,612,16616,124,-276,-31
3204000,-892,708,16752,119,-310,-21
3206000,-896,716,16612,61,-303,-4
3208000,-880,724,16556,113,-259,-13
3210000,-872,680,16564,119,-304,-15
3212000,-860,676,16640,111,-279,-1
3214000,-804,640,16672,123,-290,11
3216000,-860,684,16572,115,-343,-62
3218000,-932,704,16632,89,-314,-22
3220000,-828,608,16588,114,-274,-8
3222000,-788,616,16632,105,-275,-56
3224000,-864,684,16696,95,-304,-9
3226000,-872,652,16620,107,-308,-31
3228000,-916,652,16596,77,-268,-12
3230000,-868,656,16652,96,-295,-20
3232004,-844,656,16632,134,-266,24
3234000,-840,716,16680,130,-317,-44
3236000,-872,744,16672,117,-302,-33
3238000,-872,684,16580,67,-280,-11
3240000,-776,692,16668,157,-314,-27
3242000,-808,668,16488,125,-293,-45
3244000,-824,600,16612,98,-263,-17
3246000,-896,612,16668,125,-279,20
3248000,-848,652,16676,121,-272,-23
3250000,-896,724,16656,95,-299,-36
3252000,-852,680,16584,116,-272,-23
3254000,-892,652,16628,109,-284,-18
3256000,-848,696,16688,111,-282,13
3258000,-848,644,16780,127,-289,-42
3260004,-908,628,16616,79,-326,-26
3262000,-844,648,16648,105,-307,9
3264000,-876,728,16572,112,-314,-11
3266000,-900,672,16592,111,-285,-34
3268000,-844,696,16648,137,-297,14
3270000,-924,708,16680,122,-286,19
3272000,-908,732,16624,131,-302,0
3274000,-892,696,16712,88,-323,-28
3276000,-916,636,16684,146,-289,-7
3278000,-840,688,16604,98,-288,-29
3280000,-916,692,16624,131,-312,-10
3282000,-908,676,16660,132,-300,-27
3284000,-912,704,16660,90,-302,-45
3286000,-876,680,16528,115,-297,-20
3288000,-880,676,16656,107,-277,-19
3290000,-848,652,16688,89,-341,-35
3292000,-892,624,16652,122,-288,-4
3294000,-908,732,16620,73,-299,-1
3296000,-928,696,16572,89,-294,-2
3298000,-844,620,16504,115,-309,-23
3300000,-832,680,16572,125,-258,-31
3302000,-840,732,16668,127,-258,-49
3304000,-880,664,16592,88,-289,-19
3306000,-868,664,16688,120,-312,-7
3308004,-844,668,16744,70,-308,-14
3310000,-844,724,16544,105,-306,-10
3312000,-900,696,16716,161,-277,-23
3314004,-872,712,16592,104,-300,-11
3316000,-912,692,16612,111,-287,-6
3318000,-812,636,16584,111,-273,-45
3320004,-860,600,16616,74,-331,-18
3322000,-872,648,16760,130,-274,-3
3324000,-832,664,16688,123,-283,-3
3326000,-828,660,16604,92,-310,-32
3328000,-916,740,16568,116,-285,-4
3330000,-944,672,16608,125,-283,-3
3332000,-836,620,16588,97,-289,-8
3334000,-852,664,16620,113,-304,-28
3336000,-912,632,16568,140,-277,-49
3338000,-844,632,16636,67,-319,-24
3340000,-908,656,16592,85,-308,-14
3342000,-828,680,16576,135,-297,-25
3344000,-916,656,16572,107,-279,-7
3346000,-872,716,16708,137,-297,-23
3348000,-916,704,16652,106,-323,7
3350000,-912,660,16516,112,-273,-7
3352000,-896,628,16612,86,-339,-59
3354000,-860,680,16496,86,-294,-30
3356000,-916,668,16692,74,-304,9
3358000,-900,672,16700,124,-247,-63
3360000,-852,708,16692,119,-278,14
3362000,-832,704,16672,123,-336,-11
3364000,-888,600,16664,107,-312,-2
3366000,-812,640,16632,82,-303,-14
3368000,-892,692,16600,138,-310,-33
3370000,-844,644,16608,93,-292,-14
3372000,-860,744,16620,99,-290,-41
3374000,-868,680,16668,110,-334,7
3376000,-840,604,16628,108,-282,15
3378000,-836,660,16684,119,-300,-33
3380000,-860,640,16716,113,-299,-11
3382000,-900,692,16628,81,-278,-17
3384000,-848,680,16616,120,-272,-8
3386000,-856,680,16652,106,-256,-29
3388004,-864,644,16592,109,-268,-9
3390000,-844,652,16684,97,-266,-24
3392000,-836,668,16720,106,-313,-20
3394000,-864,696,16628,99,-302,-30
3396000,-856,640,16636,56,-292,13
3398000,-872,668,16696,110,-288,-24
3400000,-876,632,16644,152,-318,-3
3402000,-888,680,16620,92,-251,-50
3404000,-888,684,16728,92,-298,22
3406000,-832,744,16560,69,-350,-21
3408000,-848,708,16620,98,-308,5
3410000,-828,696,16620,117,-295,-16
3412000,-828,640,16696,121,-275,-24
3414000,-880,608,16540,114,-275,-39
3416004,-904,712,16672,107,-272,-3
3418000,-916,676,16608,119,-293,-29
3420000,-956,644,16568,91,-335,-29
3422000,-840,696,16588,99,-294,0
3424000,-896,672,16632,98,-286,-33
3426000,-892,680,16640,113,-272,15
3428000,-860,760,16616,82,-299,-42
3430000,-936,756,16712,106,-297,-20
3432000,-868,716,16656,113,-271,-22
3434000,-808,708,16752,144,-270,-19
3436004,-844,708,16680,75,-294,-12
3438000,-856,740,16616,122,-295,-52
3440000,-900,688,16640,123,-314,-1
3442004,-872,652,16596,102,-291,-6
3444000,-864,604,16668,147,-294,-13
3446000,-932,636,16592,132,-300,5
3448004,-884,696,16628,98,-307,37
3450000,-840,672,16540,106,-290,-14
3452000,-900,728,16604,84,-323,-34
3454000,-908,608,16604,87,-321,-12
3456000,-732,644,16620,129,-283,-15
3458000,-928,696,16784,133,-290,-27
3460000,-904,700,16664,99,-333,11
3462000,-856,700,16632,123,-304,-2
3464000,-836,632,16568,130,-324,-19
3466000,-844,640,16788,94,-302,-29
3468000,-920,716,16636,124,-306,-25
3470000,-800,668,16556,101,-298,-38
3472000,-940,716,16656,78,-278,-3
3474000,-900,700,16712,53,-331,4
3476000,-852,676,16648,154,-276,-29
3478004,-820,664,16640,99,-293,-49
3480000,-864,672,16664,72,-266,8
3482000,-804,756,16500,118,-301,-30
3484000,-864,620,16536,101,-283,-8
3486000,-824,564,16648,143,-288,-15
3488004,-840,680,16600,110,-275,-24
3490000,-860,636,16724,115,-272,2
3492000,-872,652,16660,154,-314,2
3494000,-884,672,16528,77,-285,3
3496000,-820,704,16568,172,-311,0
3498000,-904,664,16672,116,-295,-12
3500000,-844,700,16620,103,-290,-54
3502000,-788,696,16644,92,-284,-7
3504000,-848,648,16644,98,-286,-7
3506000,-860,712,16684,129,-310,-12
3508000,-820,700,16568,100,-325,-7
3510000,-868,676,16516,95,-272,0
3512000,-924,636,16600,106,-252,15
3514000,-836,692,16632,99,-290,1
3516004,-960,700,16612,104,-300,-7
3518000,-912,640,16560,116,-325,-25
3520000,-896,600,16616,81,-328,-6
3522000,-880,568,16668,125,-346,-32
3524000,-840,732,16620,120,-268,-43
3526000,-832,676,16652,90,-290,-58
3528000,-900,708,16596,101,-326,-14
3530000,-864,664,16668,130,-273,-49
3532000,-820,632,16688,124,-304,-22
3534000,-768,652,16664,130,-292,-18
3536000,-876,636,16628,112,-301,-35
3538000,-956,704,16604,85,-301,-7
3540000,-856,712,16620,111,-309,-35
3542004,-872,652,16544,120,-314,-32
3544000,-872,648,16584,119,-322,-21
3546000,-884,628,16580,132,-325,-33
3548000,-876,704,16660,73,-330,-23
3550000,-872,752,16632,125,-287,-35
3552000,-948,624,16612,94,-316,17
3554000,-820,716,16668,96,-293,-16
3556000,-800,548,16652,114,-270,-47
3558000,-876,592,16660,111,-251,-23
3560000,-848,688,16612,130,-305,-29
3562000,-912,712,16652,113,-275,-33
3564004,-828,708,16620,116,-320,-8
3566000,-812,620,16632,116,-288,-9
3568000,-828,680,16624,143,-272,-20
3570004,-868,640,16728,140,-310,29
3572000,-892,740,16512,109,-287,12
3574000,-844,688,16708,122,-276,-13
3576004,-924,612,16652,124,-269,-18
3578000,-852,664,16632,93,-277,-20
3580000,-848,712,16668,119,-289,-38
3582000,-952,648,16732,109,-280,12
3584000,-884,692,16580,105,-307,-13
3586000,-888,660,16660,114,-318,-26
3588000,-864,644,16648,110,-292,-24
3590000,-888,656,16712,93,-274,-31
3592000,-908,712,16656,126,-305,-16
3594000,-836,716,16584,97,-297,-17
3596000,-872,708,16584,86,-314,-33
3598000,-900,700,16640,128,-314,10
3600000,-880,676,16640,127,-302,-13
3602000,-832,664,16740,138,-247,6
3604000,-868,704,16676,95,-262,-27
3606000,-888,740,16556,97,-299,-48
3608000,-896,660,16596,85,-264,-37
3610000,-792,636,16636,86,-338,14
3612000,-872,644,16732,130,-265,2
3614000,-912,664,16728,122,-280,-31
3616000,-884,744,16652,118,-315,-24
3618000,-836,724,16600,98,-284,-47
3620000,-876,644,16740,81,-302,-8
3622000,-820,680,16560,87,-257,-29
3624000,-804,676,16656,142,-310,-17
3626000,-896,632,16600,73,-307,17
3628000,-916,640,16556,69,-318,4
3630000,-836,640,16620,106,-305,-37
3632000,-816,676,16576,122,-263,-24
3634000,-848,712,16692,112,-256,-19
3636000,-868,656,16600,126,-301,-6
3638000,-828,672,16556,124,-333,-42
3640000,-876,612,16620,96,-325,10
3642000,-868,644,16656,115,-299,-23
3644004,-864,692,16764,135,-298,-2
3646000,-884,684,16624,111,-267,-41
3648000,-864,704,16592,109,-305,-19
3650000,-832,700,16644,80,-291,-8
3652000,-916,664,16608,127,-311,-24
3654000,-836,644,16624,115,-317,-4
3656000,-832,692,16692,85,-288,2
3658000,-880,664,16604,106,-278,-41
3660000,-912,732,16644,133,-290,-25
3662000,-932,776,16636,91,-338,-13
3664000,-880,724,16668,88,-265,-22
3666000,-820,664,16628,119,-265,-20
3668000,-864,624,16660,120,-307,37
3670004,-928,720,16692,115,-307,-17
3672000,-876,704,16608,97,-294,-39
3674000,-852,644,16612,108,-322,26
3676000,-908,640,16712,97,-293,-49
3678000,-892,712,16640,120,-276,-11
3680000,-836,696,16728,105,-289,-25
3682000,-916,748,16680,92,-287,-4
3684000,-852,724,16536,111,-306,28
3686000,-852,676,16648,126,-320,-22
3688000,-836,656,16660,63,-290,-13
3690000,-820,644,16600,112,-283,2
3692004,-804,708,16600,115,-295,-37
3694000,-908,688,16712,118,-298,-29
3696000,-796,700,16664,85,-270,-8
3698004,-864,624,16508,103,-300,-5
3700000,-812,652,16656,105,-299,-12
3702000,-840,696,16680,105,-281,-16
3704004,-824,716,16588,112,-299,-23
3706000,-876,684,16664,124,-285,-12
3708000,-796,628,16612,114,-316,1
3710000,-896,700,16724,123,-305,-2
3712000,-868,708,16712,103,-284,-26
3714000,-808,592,16580,118,-290,-13
3716000,-856,644,16660,107,-328,-26
3718000,-840,668,16596,114,-282,-34
3720000,-836,692,16516,117,-294,-12
3722000,-856,612,16604,129,-262,-17
3724000,-932,732,16604,97,-309,14
3726000,-860,596,16636,120,-317,-10
3728000,-888,640,16628,72,-288,-18
3730000,-916,652,16616,123,-263,-27
3732000,-876,612,16556,145,-299,-5
3734000,-832,612,16672,133,-273,-10
3736000,-936,728,16708,98,-282,-9
3738000,-852,644,16604,87,-293,18
3740000,-932,744,16588,125,-283,-3
3742000,-864,616,16564,114,-287,9
3744000,-860,684,16676,97,-309,-3
3746000,-876,684,16628,106,-240,-5
3748000,-884,664,16664,144,-275,-9
3750000,-904,664,16752,108,-304,4
3752000,-920,620,16512,107,-299,-24
3754000,-876,696,16616,92,-308,-26
3756000,-856,700,16656,134,-277,-22
3758000,-832,712,16732,137,-285,-56
3760000,-812,764,16672,80,-333,-1
3762000,-936,700,16608,100,-286,-28
3764000,-920,672,16636,109,-282,4
3766000,-912,676,16712,118,-310,1
3768000,-828,716,16720,87,-307,-38
3770000,-796,684,16684,139,-283,10
3772004,-860,672,16624,104,-312,-12
3774000,-880,676,16572,66,-313,-30
3776000,-860,660,16636,124,-282,2
3778000,-816,628,16660,106,-289,3
3780000,-856,700,16632,70,-283,-1
3782000,-816,644,16656,135,-308,-13
3784000,-872,596,16600,103,-333,3
3786000,-868,660,16604,110,-318,-25
3788000,-844,652,16628,125,-276,-6
3790000,-860,612,16496,96,-270,-4
3792000,-904,688,16596,125,-301,-29
3794000,-896,672,16528,107,-306,-19
3796000,-820,700,16596,97,-315,-14
3798000,-852,708,16624,114,-290,-24
3800000,-904,636,16588,134,-266,-45
3802000,-844,704,16680,108,-277,9
3804000,-888,708,16684,116,-278,-27
3806000,-876,664,16616,110,-303,-23
3808000,-784,624,16568,148,-302,-25
3810000,-908,588,16632,100,-279,-22
3812000,-784,676,16604,130,-310,22
3814000,-920,696,16568,92,-301,-20
3816000,-836,704,16600,96,-296,-14
3818000,-888,652,16660,103,-275,-4
3820000,-852,656,16660,114,-293,1
3822000,-848,672,16588,102,-270,-13
3824000,-880,604,16692,85,-291,-29
3826004,-996,668,16588,114,-286,-9
3828000,-880,688,16644,105,-292,-15
3830000,-880,704,16636,119,-297,-16
3832004,-828,692,16636,122,-297,-28
3834000,-872,760,16616,130,-267,5
3836000,-932,704,16628,113,-263,-39
3838000,-964,712,16540,152,-297,-2
3840000,-868,668,16632,84,-362,-20
3842000,-884,676,16728,123,-305,17
3844000,-904,668,16632,128,-275,0
3846000,-756,652,16584,103,-286,-10
3848000,-880,732,16528,119,-310,-32
3850000,-928,656,16700,71,-276,-24
3852004,-840,688,16604,94,-310,-14
3854000,-812,672,16576,98,-299,-28
3856000,-864,692,16692,87,-284,15
3858000,-856,652,16596,127,-324,-49
3860000,-900,664,16712,96,-297,-5
3862000,-868,596,16556,91,-328,-4
3864000,-888,664,16676,139,-304,-35
3866000,-876,600,16684,102,-286,-28
3868000,-888,612,16608,135,-260,2
3870000,-888,652,16788,135,-301,2
3872000,-876,624,16616,93,-316,-17
3874000,-852,708,16620,113,-348,35
3876000,-856,660,16536,119,-301,-29
3878000,-824,576,16644,102,-291,-48
3880000,-868,668,16616,125,-280,-1
3882000,-828,676,16688,127,-263,1
3884000,-832,712,16680,73,-303,-24
3886000,-920,712,16660,85,-265,-11
3888000,-852,668,16540,139,-303,-8
3890000,-844,644,16636,117,-313,-10
3892000,-816,728,16652,110,-288,-21
3894000,-936,668,16684,89,-279,-23
3896000,-908,648,16648,92,-314,-24
3898000,-868,696,16704,122,-255,-31
3900004,-848,724,16596,137,-262,-50
3902000,-884,600,16524,110,-287,-12
3904000,-848,716,16668,114,-279,-4
3906000,-900,764,16600,107,-297,-17
3908000,-888,728,16636,118,-302,-31
3910000,-928,652,16568,90,-269,-19
3912000,-872,664,16660,136,-282,8
3914004,-896,688,16604,87,-293,2
3916000,-908,776,16604,110,-309,-19
3918000,-904,652,16560,101,-344,-20
3920000,-908,672,16612,108,-282,-36
3922000,-860,648,16700,76,-284,-29
3924000,-904,692,16564,106,-314,12
3926004,-896,728,16660,111,-342,7
3928000,-940,736,16652,118,-311,-27
3930000,-768,660,16648,94,-311,-34
3932004,-840,696,16596,137,-285,-6
3934000,-840,640,16640,112,-288,-22
3936000,-848,668,16680,85,-280,-6
3938000,-824,668,16728,88,-301,7
3940000,-856,676,16648,136,-277,-25
3942000,-788,644,16632,118,-322,-5
3944000,-836,684,16604,119,-304,-14
3946000,-864,604,16648,101,-297,10
3948000,-868,608,16588,112,-296,19
3950000,-884,676,16808,103,-309,-19
3952004,-832,640,16680,140,-312,-25
3954000,-804,688,16624,129,-299,-10
3956000,-912,624,16656,87,-277,-40
3958000,-892,656,16672,111,-291,-2
3960000,-860,676,16644,83,-312,-6
3962000,-836,664,16592,77,-345,-8
3964000,-848,704,16616,100,-281,-19
3966000,-920,636,16668,111,-275,-16
3968000,-832,672,16696,85,-305,22
3970000,-848,680,16732,100,-302,-31
3972000,-916,696,16592,108,-288,-46
3974000,-920,684,16548,123,-330,-8
3976000,-848,616,16612,100,-280,15
3978000,-868,620,16592,138,-268,-19
3980000,-840,652,16568,110,-306,-36
3982000,-900,760,16624,104,-297,-28
3984000,-920,716,16652,129,-310,-29
3986000,-888,704,16612,100,-274,-14
3988000,-832,632,16652,145,-267,-40
3990000,-892,704,16636,120,-304,-21
3992000,-824,688,16640,76,-288,-10
3994000,-912,672,16636,111,-333,8
3996000,-888,700,16680,99,-317,-16
3998000,-900,712,16556,108,-288,-24
4000000,-836,644,16676,96,-293,-8
4002000,-832,656,16764,91,-302,-5
4004000,-872,696,16656,118,-286,-4
4006000,-840,680,16656,140,-309,-8
4008000,-864,664,16664,110,-319,-39
4010000,-848,692,16568,100,-292,-15
4012000,-888,632,16664,93,-298,-34
4014000,-860,692,16708,113,-297,-25
4016000,-908,736,16744,115,-281,-17
4018000,-844,600,16540,119,-297,-9
4020000,-892,656,16668,107,-281,-23
4022000,-856,652,16580,154,-274,3
4024000,-796,632,16612,96,-278,-15
4026000,-836,644,16604,106,-344,-27
4028004,-836,656,16588,92,-322,-5
4030000,-860,656,16612,119,-303,-8
4032000,-920,688,16624,142,-269,-10
4034000,-836,624,16680,109,-254,18
4036000,-860,644,16728,120,-297,-21
4038000,-892,740,16668,79,-284,12
4040000,-888,660,16632,105,-309,18
4042004,-892,640,16648,97,-297,-56
4044000,-864,620,16548,115,-270,-39
4046000,-908,672,16616,131,-276,-18
4048000,-908,676,16604,87,-263,16
4050000,-884,600,16548,75,-326,-29
4052000,-868,684,16632,118,-309,-68
4054004,-860,676,16488,98,-269,-17
4056000,-864,600,16644,108,-296,-8
4058000,-912,684,16592,126,-276,-35
4060004,-824,668,16624,129,-301,0
4062000,-908,708,16668,88,-283,-12
4064000,-836,688,16604,94,-318,7
4066000,-848,708,16644,139,-276,-26
4068000,-944,696,16600,96,-270,16
4070000,-920,704,16620,121,-302,-21
4072000,-884,720,16744,108,-333,-7
4074000,-864,648,16532,118,-326,-5
4076000,-812,704,16700,131,-299,-54
4078000,-832,632,16620,99,-280,13
4080004,-896,668,16620,155,-302,10
4082000,-840,708,16632,128,-291,-33
4084000,-856,652,16624,73,-331,-13
4086000,-868,640,16612,136,-289,0
4088000,-912,644,16648,111,-306,15
4090000,-896,636,16676,115,-290,2
4092000,-848,628,16556,96,-290,-14
4094000,-876,684,16648,107,-299,-23
4096000,-776,696,16648,88,-332,-43
4098000,-900,656,16644,138,-304,0
4100000,-836,724,16688,110,-283,-25
4102000,-876,668,16684,105,-261,5
4104000,-848,624,16664,103,-308,1
4106000,-896,668,16684,97,-307,-42
4108000,-896,684,16580,144,-308,-20
4110000,-880,668,16640,79,-293,-24
4112000,-808,632,16656,128,-306,-10
4114000,-808,672,16656,131,-292,-1
4116000,-864,708,16608,96,-298,27
4118000,-784,616,16656,130,-340,-27
4120000,-856,572,16632,113,-309,-30
4122000,-808,628,16640,133,-263,-27
4124000,-764,696,16688,115,-298,23
4126000,-824,700,16592,118,-271,-13
4128000,-888,648,16700,128,-310,-9
4130000,-808,736,16676,103,-316,-43
4132000,-868,620,16604,104,-308,3
4134000,-904,656,16644,98,-318,1
4136000,-852,676,16680,126,-291,10
4138000,-836,716,16636,118,-308,-12
4140000,-788,636,16692,82,-317,-22
4142000,-840,700,16616,65,-297,-17
4144000,-900,668,16612,133,-277,17
4146000,-888,732,16640,119,-296,-31
4148000,-940,648,16644,119,-328,-5
4150000,-916,692,16644,67,-273,-10
4152000,-880,680,16564,80,-285,-24
4154000,-828,652,16620,89,-314,-6
4156004,-824,704,16652,132,-281,-22
4158000,-932,780,16644,102,-255,-24
4160000,-888,720,16608,134,-308,12
4162000,-872,704,16640,129,-324,-18
4164000,-876,728,16636,75,-300,-27
4166000,-960,684,16632,152,-250,2
4168000,-880,732,16592,97,-284,-12
4170000,-928,704,16696,114,-307,14
4172000,-864,700,16592,87,-277,-1
4174000,-872,716,16576,68,-320,-21
4176000,-816,652,16704,66,-307,-26
4178000,-836,664,16628,125,-280,-24
4180000,-868,692,16700,116,-294,-14
4182004,-944,684,16592,108,-302,-5
4184000,-904,688,16580,85,-311,-9
4186000,-864,652,16588,109,-278,-17
4188000,-840,656,16660,113,-290,-16
4190000,-840,684,16684,133,-281,0
4192000,-804,652,16632,131,-299,5
4194000,-856,696,16692,106,-301,-15
4196000,-928,716,16560,93,-294,-21
4198000,-804,652,16616,123,-300,-19
4200000,-844,616,16612,100,-274,-20
4202000,-868,636,16660,122,-310,-36
4204004,-852,624,16600,118,-330,-6
4206000,-804,640,16520,81,-297,-11
4208000,-808,624,16628,90,-304,15
4210004,-808,660,16536,133,-294,-8
4212000,-828,660,16532,123,-284,-13
4214000,-844,580,16704,138,-277,-4
4216000,-896,648,16584,110,-311,-1
4218000,-932,704,16620,98,-315,-13
4220000,-848,644,16652,103,-279,-6
4222000,-848,688,16652,120,-326,-25
4224000,-860,700,16600,123,-284,-12
4226000,-836,612,16600,150,-291,-49
4228000,-836,652,16696,114,-295,-27
4230000,-816,660,16596,87,-288,-45
4232000,-920,652,16644,101,-316,-26
4234000,-856,672,16708,125,-287,-25
4236000,-904,640,16684,139,-280,-27
4238000,-908,688,16692,87,-289,-13
4240000,-932,736,16668,132,-313,-9
4242000,-888,668,16628,126,-308,-29
4244000,-896,676,16620,128,-290,-35
4246000,-872,712,16684,95,-294,-42
4248000,-920,768,16624,114,-275,-11
4250000,-864,708,16656,103,-323,-26
4252000,-876,692,16536,110,-300,-19
4254000,-900,640,16696,133,-316,-43
4256004,-868,728,16696,149,-294,-23
4258000,-848,680,16752,145,-262,13
4260000,-848,704,16596,104,-351,9
4262000,-900,720,16580,78,-311,-27
4264004,-876,764,16568,121,-324,-12
4266000,-916,684,16652,142,-290,-14
4268000,-920,660,16556,107,-289,-23
4270000,-864,696,16636,115,-293,-19
4272000,-976,712,16600,141,-314,-28
4274000,-900,708,16600,92,-297,17
4276000,-836,704,16580,119,-310,-30
4278000,-792,656,16752,97,-292,-52
4280000,-920,640,16692,124,-270,4
4282000,-864,696,16632,106,-280,-29
4284004,-896,736,16600,87,-298,8
4286000,-884,652,16584,93,-325,-8
4288000,-836,620,16572,114,-317,-24
4290000,-924,640,16664,113,-296,13
4292004,-864,660,16668,126,-298,6
4294000,-928,592,16668,48,-286,-21
4296000,-872,636,16572,100,-292,-18
4298000,-836,660,16620,62,-289,-29
4300000,-904,668,16608,121,-304,-19
4302000,-824,748,16724,133,-301,-7
4304000,-880,716,16620,100,-299,-34
4306000,-948,732,16628,99,-284,-15
4308000,-860,744,16600,125,-312,-26
4310000,-832,660,16608,101,-291,-25
4312000,-840,620,16636,114,-293,-1
4314000,-896,696,16560,93,-300,-19
4316000,-884,724,16680,96,-301,-23
4318000,-832,720,16648,96,-318,-27
4320000,-904,692,16584,91,-298,5
4322000,-816,720,16560,126,-293,-26
4324000,-828,592,16724,128,-300,-27
4326000,-904,720,16592,87,-311,-19
4328000,-832,724,16556,68,-272,-30
4330000,-824,664,16608,94,-313,-34
4332004,-892,640,16648,111,-294,10
4334000,-864,656,16656,105,-304,-47
4336000,-820,736,16620,101,-295,-31
4338004,-896,716,16680,124,-319,-2
4340000,-892,740,16648,83,-295,15
4342000,-792,636,16556,138,-307,2
4344004,-872,704,16680,145,-287,7
4346000,-856,692,16612,122,-242,-4
4348000,-840,748,16608,142,-270,-31
4350000,-896,648,16632,85,-315,-11
4352000,-824,672,16492,108,-333,-24
4354000,-876,668,16564,125,-306,-11
4356000,-852,672,16604,93,-240,-15
4358000,-840,640,16700,109,-287,-25
4360000,-896,708,16660,99,-317,-26
4362000,-888,652,16528,79,-327,-11
4364000,-852,592,16580,119,-286,-14
4366000,-852,620,16652,186,-292,6
4368000,-844,588,16600,66,-268,9
4370000,-888,704,16640,145,-311,-15
4372000,-904,636,16540,93,-348,-24
4374000,-852,676,16608,128,-304,-2
4376000,-916,684,16652,119,-311,-53
4378000,-812,696,16668,124,-291,5
4380000,-872,672,16644,127,-296,-38
4382000,-908,704,16716,133,-307,-24
4384004,-876,656,16616,99,-308,-3
4386000,-832,724,16568,93,-276,-33
4388000,-808,740,16636,117,-261,-18
4390000,-868,660,16528,104,-286,-5
4392004,-836,676,16644,117,-302,-23
4394000,-892,696,16592,101,-292,20
4396000,-848,704,16560,79,-296,14
4398000,-936,588,16408,109,-334,-68
4400000,-856,684,16580,140,-301,-16
4402000,-848,680,16744,124,-253,-12
4404000,-904,700,16608,116,-311,-10
4406000,-940,700,16636,89,-325,4
4408000,-832,676,16564,81,-320,17
4410000,-908,680,16604,97,-290,-11
4412004,-840,664,16636,122,-286,-18
4414000,-924,688,16728,136,-271,-25
4416000,-948,580,16588,100,-315,-46
4418000,-900,652,16576,92,-307,-20
4420000,-880,652,16576,84,-288,-5
4422004,-904,632,16608,109,-271,-16
4424000,-884,636,16612,91,-251,-25
4426004,-900,664,16560,127,-287,-3
4428000,-888,700,16560,127,-296,7
4430000,-808,664,16640,93,-331,4
4432000,-872,608,16692,171,-287,-2
4434000,-792,676,16748,132,-270,-35
4436000,-876,648,16648,139,-296,-17
4438004,-820,684,16568,121,-311,-38
4440000,-932,712,16672,77,-305,7
4442000,-864,592,16684,97,-288,15
4444004,-768,580,16476,114,-278,-35
4446000,-824,644,16692,111,-309,-38
4448000,-816,648,16544,122,-277,-36
4450000,-868,692,16604,90,-322,1
4452000,-816,680,16596,110,-328,-21
4454000,-864,696,16660,85,-281,-41
4456000,-860,700,16556,113,-295,-15
4458000,-800,644,16628,131,-279,-17
4460000,-848,644,16776,97,-295,-9
4462000,-852,616,16536,73,-322,-6
4464000,-828,712,16684,100,-274,5
4466000,-864,704,16644,143,-279,-28
4468000,-812,676,16540,110,-312,-38
4470000,-872,648,16620,116,-325,-22
4472004,-896,680,16740,112,-310,-17
4474000,-816,672,16560,113,-294,-17
4476000,-792,664,16628,114,-328,-25
4478000,-812,740,16684,124,-311,1
4480000,-840,656,16668,117,-303,-10
4482000,-876,692,16712,112,-289,-11
4484000,-828,664,16552,116,-285,-21
4486000,-884,688,16532,83,-288,-11
4488000,-912,580,16600,139,-291,7
4490000,-896,700,16760,131,-294,-14
4492000,-912,744,16608,107,-291,-52
4494000,-880,700,16592,107,-294,0
4496000,-868,612,16520,90,-307,-20
4498000,-940,676,16656,123,-266,-17
4500000,-848,668,16592,125,-286,-30
4502000,-912,668,16576,108,-260,-20
4504000,-932,720,16664,125,-319,19
4506000,-888,752,16612,117,-292,-28
4508000,-904,668,16560,94,-316,-14
4510000,-872,696,16604,107,-277,-10
4512000,-896,712,16656,141,-300,-43
4514000,-868,732,16672,105,-281,-13
4516000,-836,724,16556,68,-278,-19
4518000,-888,680,16712,112,-294,-5
4520000,-908,760,16628,130,-326,7
4522000,-860,664,16608,132,-288,-3
4524000,-892,720,16612,122,-250,-15
4526000,-900,688,16596,72,-264,-2
4528000,-872,788,16636,99,-305,-10
4530000,-916,688,16724,121,-338,2
4532000,-864,640,16608,101,-267,-2
4534000,-864,696,16640,119,-310,-3
4536000,-920,672,16684,157,-305,-38
4538000,-792,668,16648,106,-319,-42
4540004,-856,700,16456,109,-306,-6
4542000,-856,684,16552,93,-267,-28
4544000,-788,664,16628,95,-288,-27
4546000,-840,620,16620,113,-291,-22
4548000,-892,600,16584,125,-330,-60
4550000,-908,660,16616,108,-279,-16
4552000,-836,660,16588,92,-305,-17
4554000,-812,668,16712,70,-325,21
4556000,-824,592,16572,106,-265,-9
4558000,-856,620,16700,90,-292,-15
4560000,-824,700,16788,97,-310,3
4562000,-868,656,16748,91,-320,0
4564000,-840,636,16684,97,-294,-12
4566004,-820,664,16544,103,-297,-18
4568000,-852,552,16608,88,-282,-6
4570000,-820,636,16660,112,-301,8
4572000,-836,656,16692,108,-290,-17
4574000,-920,708,16664,105,-318,-14
4576000,-820,704,16644,75,-303,-9
4578000,-860,708,16736,127,-304,18
4580000,-840,692,16628,139,-297,-23
4582000,-892,644,16644,130,-297,-40
4584000,-856,704,16604,116,-277,-66
4586000,-892,660,16696,94,-301,7
4588000,-792,692,16616,130,-305,3
4590000,-868,624,16564,99,-291,-8
4592004,-864,628,16560,116,-285,-17
4594000,-832,708,16624,107,-286,-16
4596000,-864,632,16592,122,-270,-16
4598000,-844,704,16688,112,-275,11
4600000,-876,696,16684,104,-294,-37
4602000,-832,724,16644,85,-343,-10
4604000,-896,740,16620,120,-290,-17
4606000,-892,680,16696,139,-277,-20
4608000,-864,696,16588,120,-315,-5
4610000,-872,636,16588,85,-314,6
4612000,-876,648,16776,83,-281,-9
4614000,-852,696,16552,121,-335,-13
4616000,-868,660,16672,92,-284,-25
4618000,-860,688,16544,88,-313,-17
4620000,-900,676,16556,94,-305,-7
4622000,-920,644,16588,115,-341,-26
4624000,-904,688,16556,108,-284,-59
4626000,-908,656,16548,122,-283,-19
4628000,-872,664,16620,141,-283,-16
4630000,-844,692,16512,101,-303,-41
4632000,-868,648,16596,127,-300,-15
4634000,-868,664,16680,97,-313,-3
4636000,-904,656,16692,109,-286,-33
4638000,-924,708,16648,87,-260,-1
4640000,-828,740,16576,106,-314,-11
4642000,-864,684,16572,96,-313,-36
4644000,-920,700,16524,113,-283,-27
4646000,-808,676,16612,116,-278,-14
4648000,-872,656,16608,89,-306,-4
4650000,-872,692,16456,84,-279,-18
4652000,-828,668,16612,99,-284,8
4654000,-816,684,16700,113,-249,-19
4656000,-888,728,16572,112,-283,-23
4658000,-868,688,16668,102,-321,5
4660000,-780,700,16652,108,-296,-14
4662000,-872,684,16608,83,-281,-20
4664000,-892,772,16620,95,-301,-19
4666000,-804,692,16568,115,-282,-6
4668004,-788,680,16628,92,-275,5
4670000,-884,720,16632,130,-303,-32
4672000,-920,712,16680,83,-291,-29
4674000,-864,720,16616,99,-316,-39
4676000,-880,684,16668,106,-288,-18
4678000,-860,680,16652,99,-295,1
4680000,-896,664,16672,78,-284,-24
4682000,-900,660,16664,120,-322,-4
4684000,-940,760,16700,148,-286,-17
4686000,-916,612,16536,106,-306,-6
4688000,-932,684,16696,92,-299,-11
4690000,-904,644,16724,98,-255,-31
4692000,-888,740,16680,145,-323,-18
4694000,-916,656,16720,110,-322,-6
4696000,-984,688,16588,83,-284,-8
4698000,-928,656,16600,125,-319,-48
4700000,-892,636,16564,124,-322,-16
4702000,-848,668,16612,101,-305,8
4704000,-952,612,16584,100,-323,-27
4706000,-880,712,16608,110,-295,17
4708000,-896,648,16556,129,-263,5
4710000,-856,660,16540,90,-305,-13
4712000,-788,704,16704,127,-283,-26
4714000,-848,668,16736,98,-296,-36
4716000,-852,640,16664,116,-311,-17
4718000,-856,696,16636,93,-291,-43
4720000,-788,680,16660,116,-268,-35
4722000,-860,620,16680,104,-261,-5
4724000,-832,672,16624,110,-308,-17
4726000,-788,660,16732,117,-289,3
4728000,-872,680,16620,84,-294,-12
4730000,-848,688,16660,95,-294,-44
4732000,-856,680,16672,116,-287,-29
4734000,-832,672,16732,132,-300,-26
4736000,-820,660,16712,116,-274,-30
4738000,-932,652,16596,111,-293,9
4740000,-888,632,16496,53,-283,-9
4742000,-904,692,16628,119,-251,-29
4744000,-852,684,16588,89,-273,-41
4746000,-848,644,16664,138,-290,-18
4748000,-876,780,16616,98,-305,-26
4750000,-868,708,16572,127,-281,-13
4752000,-908,600,16640,111,-296,-21
4754000,-884,660,16636,123,-265,-42
4756000,-824,676,16736,128,-315,-23
4758000,-872,708,16704,120,-292,-19
4760000,-988,700,16624,119,-303,-10
4762000,-920,720,16672,106,-324,-31
4764000,-924,712,16548,124,-299,-43
4766000,-920,684,16552,126,-294,-11
4768000,-944,640,16692,121,-298,-42
4770000,-964,764,16572,118,-291,4
4772000,-856,692,16672,93,-287,-37
4774000,-844,720,16632,97,-356,-4
4776000,-860,724,16624,117,-304,-6
4778000,-848,740,16624,117,-301,-14
4780004,-844,676,16692,120,-291,2
4782000,-892,676,16632,92,-296,-10
4784000,-816,760,16632,126,-320,-23
4786000,-856,692,16576,109,-318,-28
4788000,-776,624,16640,116,-300,12
4790000,-836,716,16644,110,-265,20
4792000,-836,676,16576,129,-312,-25
4794000,-800,708,16620,97,-292,-25
4796004,-832,644,16664,105,-295,14
4798000,-824,640,16648,118,-321,-25
4800000,-832,688,16648,140,-270,-23
4802000,-800,688,16700,140,-271,-52
4804000,-864,624,16700,118,-277,-24
4806000,-892,632,16576,110,-323,-54
4808000,-928,664,16700,87,-284,-35
4810000,-828,588,16656,130,-323,-33
4812000,-884,628,16636,75,-290,-16
4814000,-880,656,16748,142,-277,-19
4816000,-916,612,16704,78,-282,-21
4818000,-840,696,16592,82,-302,-24
4820000,-880,688,16668,140,-282,-20
4822004,-860,612,16628,121,-304,-31
4824000,-884,644,16720,110,-302,4
4826000,-904,740,16612,123,-295,-10
4828000,-832,712,16524,83,-303,15
4830000,-876,752,16668,130,-319,-8
4832000,-884,672,16636,95,-352,-8
4834000,-888,676,16592,73,-309,3
4836000,-868,700,16548,150,-274,-28
4838000,-852,692,16632,109,-272,-36
4840000,-844,616,16584,87,-284,-24
4842000,-856,660,16656,126,-327,1
4844004,-792,744,16640,112,-327,-63
4846000,-852,672,16640,118,-285,-6
4848004,-844,704,16604,122,-286,0
4850000,-792,716,16628,97,-284,-41
4852000,-804,724,16624,123,-306,11
4854000,-856,608,16644,113,-287,-14
4856000,-876,684,16656,121,-288,-6
4858000,-820,672,16552,91,-321,-11
4860000,-876,644,16644,127,-306,-16
4862000,-864,628,16600,106,-262,-19
4864000,-824,684,16568,97,-322,-53
4866000,-880,672,16584,97,-274,-14
4868000,-844,660,16656,142,-281,-30
4870000,-888,648,16720,102,-279,-4
4872000,-796,692,16572,100,-305,-17
4874000,-824,628,16644,132,-303,-39
4876000,-932,556,16580,122,-324,0
4878000,-840,628,16644,131,-282,35
4880000,-828,596,16580,111,-274,-1
4882000,-924,724,16680,100,-289,-8
4884000,-952,616,16692,100,-332,-19
4886000,-904,716,16556,104,-323,-34
4888000,-900,628,16572,144,-281,29
4890000,-872,640,16672,108,-302,19
4892000,-856,676,16656,120,-276,-15
4894000,-884,716,16684,86,-305,-5
4896000,-876,640,16624,120,-297,-11
4898000,-944,700,16756,106,-305,-35
4900000,-840,732,16636,89,-263,-12
4902000,-812,648,16684,77,-286,-10
4904000,-820,700,16644,112,-316,-49
4906000,-828,688,16684,82,-321,-23
4908000,-848,756,16556,96,-287,-9
4910000,-868,692,16560,109,-339,-42
4912000,-788,644,16712,115,-268,0
4914000,-828,680,16640,98,-305,-24
4916000,-828,768,16644,98,-311,-49
4918000,-840,664,16612,112,-331,-6
4920004,-844,632,16656,93,-283,3
4922000,-776,628,16608,148,-279,-13
4924004,-824,668,16644,135,-245,-15
4926000,-828,640,16524,104,-284,17
4928000,-840,680,16664,91,-318,-15
4930000,-784,648,16672,98,-315,-35
4932000,-848,652,16664,109,-298,-16
4934000,-840,584,16704,145,-258,-5
4936000,-832,628,16524,101,-274,-6
4938004,-832,632,16584,113,-298,-5
4940000,-872,672,16624,87,-286,-9
4942000,-872,604,16700,72,-312,-15
4944000,-928,656,16592,102,-286,-29
4946000,-964,692,16616,112,-271,-25
4948000,-872,712,16628,116,-278,4
4950004,-972,812,16592,94,-290,-19
4952000,-984,780,16644,106,-308,-16
4954000,-988,768,16684,90,-317,-43
4956004,-976,800,16648,147,-304,9
4958000,-912,772,16580,143,-286,-11
4960000,-968,784,16584,105,-316,-39
4962000,-1064,792,16652,115,-269,-19
4964000,-952,840,16580,69,-313,22
4966000,-912,824,16572,135,-303,-24
4968000,-912,848,16604,110,-302,26
4970000,-992,788,16560,121,-322,-12
4972004,-924,820,16436,87,-360,-31
4974000,-1004,832,16624,119,-336,-12
4976004,-964,860,16580,88,-308,-1
4978000,-896,768,16572,89,-313,-20
4980000,-860,804,16616,127,-268,-23
4982000,-792,780,16632,124,-305,-38
4984000,-888,776,16572,127,-308,-2
4986000,-852,776,16644,83,-328,-15
4988000,-860,672,16576,109,-303,6
4990000,-832,640,16544,116,-281,-14
4992000,-816,664,16616,102,-312,-20
4994000,-840,572,16632,112,-337,-24
4996000,-796,588,16564,82,-320,-17
4998000,-716,624,16624,102,-342,-15
5000000,-768,548,16660,100,-286,-6
5002000,-740,544,16688,126,-261,-6
5004000,-692,464,16764,98,-311,-13
5006000,-804,560,16636,137,-297,-41
5008000,-812,484,16628,102,-303,5
5010000,-800,420,16592,94,-274,-21
5012000,-832,528,16704,132,-269,-28
5014000,-732,480,16552,68,-315,-44
5016000,-784,536,16648,135,-284,-7
5018000,-820,536,16680,129,-292,-18
5020000,-852,520,16532,121,-313,-5
5022000,-816,548,16576,111,-269,4
5024000,-812,560,16552,124,-266,-18
5026000,-836,688,16620,101,-261,-30
5028004,-832,660,16668,132,-320,-15
5030000,-944,656,16640,94,-289,-17
5032000,-876,680,16600,116,-314,-12
5034000,-892,676,16716,112,-240,-21
5036000,-880,728,16560,109,-244,-11
5038000,-952,756,16632,138,-304,-1
5040000,-968,804,16588,85,-287,-1
5042000,-860,804,16652,108,-279,-9
5044000,-992,772,16632,107,-284,-17
5046000,-964,812,16728,127,-309,-7
5048004,-976,852,16664,99,-242,-24
5050000,-1020,876,16672,94,-303,-20
5052004,-976,892,16548,111,-310,-6
5054000,-932,832,16472,87,-288,-36
5056000,-948,800,16648,111,-300,-24
5058000,-964,732,16632,129,-301,-4
5060000,-1000,796,16628,100,-275,-2
5062000,-956,832,16560,114,-302,-33
5064000,-924,744,16632,127,-261,-28
5066000,-936,716,16740,113,-295,-3
5068000,-888,692,16704,122,-312,-17
5070000,-924,732,16740,131,-267,4
5072000,-836,616,16632,78,-321,-6
5074000,-864,636,16584,85,-327,-29
5076000,-924,640,16548,121,-313,-28
5078004,-796,536,16668,135,-289,-25
5080000,-836,628,16648,115,-306,-5
5082000,-776,560,16724,111,-268,-8
5084000,-856,548,16688,101,-295,-44
5086000,-740,616,16668,103,-340,-7
5088000,-756,500,16676,110,-297,4
5090000,-712,516,16688,115,-261,-23
5092000,-728,556,16696,114,-306,-37
5094000,-756,480,16676,93,-335,-23
5096000,-740,584,16652,110,-322,0
5098000,-732,524,16608,130,-265,-25
5100004,-800,608,16752,117,-285,-19
5102000,-756,508,16712,113,-308,-22
5104000,-768,556,16692,108,-308,3
5106004,-716,584,16648,102,-327,-14
5108000,-788,616,16644,104,-304,-19
5110000,-804,616,16608,114,-297,-23
5112004,-796,672,16588,144,-291,-22
5114000,-888,724,16616,128,-293,-22
5116000,-836,692,16544,88,-279,-36
5118000,-844,708,16584,119,-287,3
5120000,-896,692,16556,109,-270,-9
5122000,-920,760,16560,126,-296,-31
5124000,-932,668,16620,100,-280,-7
5126000,-1000,736,16660,127,-293,-16
5128000,-936,772,16608,126,-276,-36
5130000,-904,768,16544,112,-269,-28
5132000,-1036,700,16584,104,-280,-3
5134000,-1052,764,16656,117,-312,-7
5136000,-960,772,16776,82,-262,-39
5138000,-956,732,16692,114,-245,21
5140000,-956,712,16568,142,-330,19
5142000,-1008,740,16584,93,-303,-25
5144000,-1012,692,16536,141,-276,-54
5146000,-992,700,16556,125,-296,-2
5148000,-932,724,16648,90,-316,37
5150000,-920,728,16632,92,-299,5
5152000,-968,724,16524,130,-292,-28
5154000,-944,680,16564,90,-323,-4
5156000,-836,716,16592,135,-306,-35
5158000,-876,760,16744,118,-321,1
5160000,-832,760,16680,81,-310,1
5162000,-836,720,16732,117,-336,-14
5164000,-828,624,16620,116,-310,2
5166000,-836,692,16532,148,-302,-14
5168000,-800,636,16656,121,-303,-40
5170000,-792,644,16584,132,-306,-10
5172000,-828,704,16624,102,-307,-5
5174000,-748,624,16664,105,-330,-55
5176000,-768,640,16592,126,-307,-29
5178000,-772,576,16640,136,-305,12
5180004,-724,632,16688,97,-287,-4
5182000,-756,648,16644,102,-267,-4
5184000,-772,668,16588,86,-308,-40
5186000,-744,636,16584,121,-273,-24
5188000,-864,620,16604,97,-293,-17
5190000,-820,636,16684,117,-309,-14
5192000,-856,608,16640,106,-279,-30
5194000,-792,632,16604,96,-268,-6
5196000,-840,668,16672,76,-283,-40
5198000,-836,644,16692,98,-274,-33
5200000,-860,604,16760,129,-275,-27
5202000,-876,668,16608,116,-252,-20
5204000,-856,700,16780,98,-338,-21
5206000,-1004,648,16620,97,-318,1
5208000,-948,692,16644,115,-320,-65
5210000,-820,664,16600,104,-288,0
5212000,-912,664,16592,102,-303,-37
5214000,-932,716,16676,102,-290,-15
5216000,-1016,648,16664,144,-278,-30
5218000,-960,632,16604,90,-288,0
5220000,-892,748,16560,123,-299,26
5222000,-972,704,16676,131,-271,-6
5224000,-928,628,16696,125,-266,-40
5226000,-884,788,16672,102,-336,8
5228000,-972,696,16576,92,-339,-51
5230000,-880,712,16488,101,-324,17
5232000,-892,760,16556,144,-298,-29
5234004,-860,680,16632,102,-319,-16
5236000,-868,708,16708,102,-298,-15
5238000,-820,748,16756,164,-275,-21
5240004,-904,796,16584,114,-301,-12
5242000,-860,696,16680,106,-311,11
5244000,-736,696,16608,98,-307,-16
5246000,-848,724,16660,119,-310,-31
5248000,-836,736,16792,117,-312,-42
5250000,-856,736,16608,110,-313,-14
5252000,-880,696,16648,86,-332,-29
5254000,-800,652,16696,110,-309,-8
5256000,-792,632,16656,99,-272,-12
5258000,-800,672,16584,121,-290,-43
5260000,-868,584,16608,98,-305,11
5262000,-844,684,16648,114,-317,-38
5264000,-880,696,16624,92,-303,-19
5266000,-832,636,16672,90,-293,-2
5268000,-876,640,16764,121,-280,-5
5270004,-824,628,16600,122,-295,-21
5272000,-928,612,16664,97,-271,4
5274000,-956,632,16596,87,-322,-11
5276000,-872,600,16664,87,-290,22
5278000,-900,616,16748,124,-309,-18
5280004,-824,592,16696,145,-232,-22
5282000,-832,564,16644,105,-292,-20
5284000,-880,668,16620,76,-334,-7
5286000,-852,672,16584,86,-322,-28
5288000,-876,636,16584,95,-282,-8
5290000,-808,656,16540,102,-291,-22
5292000,-868,612,16580,132,-297,14
5294000,-852,640,16660,126,-309,-3
5296000,-856,676,16640,83,-329,-30
5298000,-848,688,16608,108,-328,-14
5300000,-868,692,16712,111,-307,-41
5302000,-908,680,16664,105,-289,-5
5304000,-868,732,16568,88,-306,2
5306000,-852,732,16536,95,-274,-29
5308004,-852,704,16588,88,-301,-18
5310000,-852,696,16612,129,-289,4
5312000,-892,748,16680,95,-255,-4
5314000,-860,728,16660,112,-274,-13
5316000,-864,740,16636,104,-311,-39
5318000,-932,724,16552,90,-327,-48
5320000,-868,716,16584,112,-289,-35
5322000,-852,688,16572,126,-297,31
5324000,-876,652,16744,135,-275,-39
5326000,-856,624,16676,140,-269,3
5328000,-936,716,16696,90,-270,-10
5330000,-860,724,16616,102,-345,-55
5332000,-916,648,16600,128,-289,-19
5334000,-864,644,16560,104,-275,-34
5336000,-816,584,16608,123,-284,-10
5338000,-908,660,16680,111,-269,-27
5340000,-880,660,16648,111,-283,5
5342000,-916,680,16580,104,-344,-27
5344000,-836,548,16620,99,-290,-9
5346000,-868,592,16700,108,-280,-9
5348000,-916,696,16580,124,-330,-9
5350000,-932,620,16580,106,-316,8
5352000,-860,680,16588,85,-289,-7
5354000,-892,652,16652,96,-292,-16
5356004,-840,652,16584,152,-304,-19
5358000,-860,708,16608,85,-284,-18
5360000,-840,632,16664,128,-325,-3
5362004,-844,676,16652,136,-313,-6
5364000,-828,648,16576,131,-309,22
5366000,-812,656,16648,123,-256,-17
5368004,-776,692,16664,100,-266,-24
5370000,-836,696,16560,112,-304,-13
5372000,-852,716,16664,88,-282,-23
5374000,-832,752,16596,95,-308,-19
5376000,-920,712,16664,90,-284,-24
5378000,-896,644,16680,102,-318,-14
5380000,-892,744,16636,107,-320,-35
5382000,-864,712,16628,108,-266,-44
5384000,-892,708,16616,101,-305,5
5386000,-956,712,16608,93,-284,3
5388000,-964,644,16560,111,-273,-31
5390000,-964,708,16576,110,-308,-35
5392000,-928,636,16736,105,-286,-15
5394000,-856,648,16636,119,-288,-24
5396000,-888,648,16612,111,-284,-21
5398000,-836,692,16596,106,-282,-5
5400000,-868,616,16608,124,-272,-4
5402000,-900,640,16624,129,-297,-2
5404000,-896,688,16656,119,-341,-16
5406000,-856,608,16568,104,-261,-8
5408000,-888,648,16616,103,-287,-16
5410000,-808,604,16644,89,-300,5
5412000,-860,568,16668,141,-298,-21
5414000,-832,584,16664,124,-278,-22
5416000,-872,632,16696,81,-293,-51
5418000,-888,696,16588,112,-335,-19
5420000,-828,636,16556,115,-331,-3
5422000,-828,640,16692,94,-289,-46
5424000,-832,640,16728,145,-300,-13
5426000,-872,632,16712,125,-284,-20
5428000,-916,664,16580,95,-268,-31
5430000,-840,640,16532,131,-292,-28
5432000,-860,676,16620,85,-293,-20
5434000,-840,680,16664,128,-274,-32
5436004,-896,704,16664,157,-272,-46
5438000,-880,676,16656,106,-295,-26
5440000,-880,728,16600,97,-277,-44
5442000,-804,708,16632,100,-308,-42
5444000,-864,692,16460,109,-313,5
5446000,-872,676,16652,97,-279,-28
5448000,-908,744,16664,93,-283,-21
5450000,-876,748,16704,77,-325,8
5452000,-876,696,16616,106,-312,-12
5454000,-928,716,16656,126,-295,-13
5456000,-892,668,16692,131,-279,-24
5458004,-860,724,16648,105,-315,1
5460000,-912,696,16580,110,-340,17
5462000,-856,728,16596,97,-299,-19
5464000,-920,688,16652,113,-299,-41
5466004,-928,696,16640,115,-298,-27
5468000,-896,668,16640,139,-267,-10
5470000,-904,716,16592,62,-295,-17
5472000,-888,708,16692,101,-320,-19
5474000,-848,648,16748,97,-305,2
5476000,-924,700,16616,113,-302,-8
5478000,-852,652,16588,68,-294,-1
5480000,-804,624,16584,128,-278,6
5482000,-900,628,16656,115,-305,-1
5484004,-872,652,16656,95,-309,15
5486000,-808,584,16672,104,-260,-35
5488000,-804,628,16624,108,-301,19
5490004,-844,620,16660,112,-305,-22
5492000,-728,548,16760,106,-300,-18
5494000,-772,664,16612,90,-265,-6
5496004,-808,624,16584,145,-277,-9
5498000,-836,588,16644,112,-321,-4
5500000,-856,648,16728,76,-261,-15
5502000,-804,616,16608,109,-279,-18
5504000,-816,584,16564,103,-318,-5
5506000,-808,700,16648,114,-289,12
5508000,-892,672,16620,130,-315,-7
5510000,-816,676,16560,135,-308,-49
5512000,-808,616,16644,79,-286,-33
5514000,-824,656,16684,125,-310,-9
5516000,-900,696,16604,100,-302,1
5518000,-880,696,16576,96,-316,-35
5520000,-936,688,16632,112,-276,-32
5522000,-836,644,16656,118,-284,0
5524000,-836,712,16620,115,-282,-15
5526000,-896,732,16592,84,-313,-2
5528000,-896,704,16656,75,-305,10
5530000,-864,716,16556,107,-325,-2
5532000,-816,700,16540,96,-285,-20
5534000,-896,704,16724,88,-280,-23
5536000,-936,632,16532,135,-288,-33
5538000,-936,656,16732,119,-331,-14
5540000,-852,720,16612,101,-315,-52
5542000,-864,700,16584,81,-272,-12
5544000,-880,672,16756,120,-276,-28
5546000,-884,668,16600,95,-284,-14
5548000,-860,696,16604,98,-283,-16
5550000,-852,688,16672,115,-286,-14
5552000,-892,668,16704,74,-312,-37
5554000,-880,660,16540,93,-288,-36
5556000,-872,628,16492,109,-283,-23
5558000,-868,660,16636,115,-285,-15
5560000,-856,712,16608,107,-297,-62
5562000,-876,624,16556,141,-304,-5
5564004,-868,620,16660,98,-295,3
5566000,-816,600,16716,111,-308,-22
5568000,-804,580,16676,97,-269,-48
5570000,-840,612,16640,95,-303,-23
5572000,-852,632,16668,85,-289,-31
5574000,-888,628,16668,88,-279,11
5576000,-856,592,16636,103,-288,-36
5578004,-808,628,16604,110,-282,-4
5580000,-776,636,16592,112,-328,-57
5582000,-812,652,16744,142,-326,-8
5584000,-812,632,16604,75,-298,20
5586000,-860,672,16608,76,-289,-16
5588000,-816,624,16576,135,-301,-11
5590004,-900,636,16628,136,-291,-28
5592000,-848,676,16680,115,-275,-3
5594000,-872,712,16656,90,-294,9
5596000,-916,676,16628,119,-304,-8
5598000,-916,680,16696,112,-295,-36
5600000,-868,668,16696,123,-264,-48
5602000,-844,648,16680,103,-276,-44
5604000,-928,704,16644,109,-282,-5
5606000,-928,740,16696,107,-305,-12
5608000,-936,740,16736,98,-308,10
5610000,-904,724,16608,107,-280,-24
5612004,-928,716,16588,129,-295,-27
5614000,-924,728,16760,135,-267,-31
5616000,-904,732,16684,96,-336,3
5618004,-912,720,16640,111,-322,-12
5620000,-920,696,16628,110,-290,-33
5622000,-928,668,16672,140,-271,-27
5624004,-888,700,16576,94,-294,-6
5626000,-884,676,16672,137,-295,-21
5628000,-876,668,16592,95,-315,-29
5630000,-924,688,16496,79,-309,-11
5632000,-880,652,16632,116,-303,-45
5634000,-852,644,16648,131,-291,-23
5636000,-800,616,16616,127,-320,-26
5638000,-936,688,16660,112,-274,-28
5640000,-888,684,16584,96,-313,-30
5642000,-868,704,16664,87,-308,7
5644004,-812,624,16676,114,-275,-37
5646000,-864,668,16700,147,-293,-9
5648000,-872,636,16668,97,-294,-18
5650000,-780,656,16584,108,-300,-21
5652000,-816,632,16640,89,-328,-19
5654000,-792,620,16600,122,-287,13
5656000,-848,580,16608,136,-282,-6
5658000,-872,688,16656,135,-290,3
5660000,-912,716,16648,104,-270,-19
5662000,-928,700,16544,131,-287,4
5664000,-884,564,16620,120,-319,-14
5666000,-812,604,16652,84,-273,-30
5668000,-848,656,16688,134,-289,-39
5670000,-880,640,16648,123,-278,14
5672000,-828,568,16640,106,-290,-9
5674000,-916,660,16640,132,-291,-14
5676000,-864,668,16584,124,-308,-19
5678000,-860,664,16676,97,-297,4
5680000,-844,676,16676,124,-302,-17
5682000,-924,700,16696,145,-269,-8
5684000,-868,720,16656,93,-289,-29
5686000,-948,668,16600,87,-304,-24
5688000,-872,744,16604,92,-293,0
5690000,-888,604,16600,100,-289,-29
5692004,-876,636,16636,141,-305,-47
5694000,-920,736,16592,103,-269,-25
5696000,-952,712,16560,113,-307,-37
5698000,-940,708,16648,117,-288,-16
5700000,-952,788,16608,102,-289,-31
5702000,-904,644,16552,107,-288,29
5704000,-924,732,16572,94,-312,-7
5706004,-968,764,16496,83,-307,-2
5708000,-884,700,16688,111,-334,-5
5710000,-908,712,16624,152,-291,-12
5712000,-880,636,16748,79,-291,-20
5714000,-880,732,16624,124,-286,-37
5716000,-832,688,16600,99,-327,9
5718004,-828,680,16740,56,-278,13
5720000,-888,700,16604,104,-341,-6
5722000,-848,668,16632,124,-347,-38
5724004,-820,720,16616,152,-249,2
5726000,-804,704,16632,95,-285,-42
5728000,-860,716,16588,106,-306,-49
5730000,-860,696,16644,120,-344,-29
5732000,-848,656,16652,101,-297,-9
5734000,-896,648,16580,85,-269,-9
5736000,-868,644,16624,105,-295,12
5738000,-840,660,16640,80,-289,-24
5740000,-872,600,16724,62,-330,-21
5742000,-908,600,16572,127,-301,-4
5744004,-868,680,16572,103,-295,-6
5746000,-856,612,16620,146,-289,-6
5748000,-940,656,16664,113,-290,-13
5750000,-896,700,16624,123,-313,-27
5752000,-880,672,16484,100,-304,-48
5754000,-840,712,16572,118,-296,-39
5756000,-836,592,16628,111,-259,13
5758000,-892,688,16684,102,-272,-35
5760000,-928,688,16632,93,-289,-36
5762000,-892,716,16500,70,-305,-26
5764000,-860,720,16644,111,-297,-10
5766000,-868,692,16584,135,-245,-1
5768000,-832,736,16716,124,-297,-49
5770000,-852,680,16624,120,-308,-21
5772000,-840,680,16668,108,-293,-13
5774000,-824,740,16620,89,-311,-43
5776000,-892,652,16516,80,-306,-2
5778000,-880,656,16664,145,-299,-23
5780000,-892,688,16660,128,-317,-25
5782000,-920,644,16680,117,-298,-37
5784000,-864,716,16540,122,-310,-8
5786000,-852,708,16592,103,-318,0
5788000,-840,668,16600,105,-297,-15
5790000,-852,656,16612,139,-318,-1
5792004,-916,712,16696,103,-262,-19
5794000,-832,680,16628,92,-290,14
5796000,-824,620,16596,83,-313,-6
5798000,-856,644,16664,111,-319,-11
5800004,-808,632,16600,120,-283,-19
5802000,-852,640,16700,122,-312,-15
5804000,-872,640,16640,114,-301,-29
5806000,-904,676,16620,111,-308,-14
5808000,-880,624,16560,119,-306,2
5810000,-832,536,16504,113,-294,-4
5812000,-872,608,16620,123,-274,-30
5814000,-872,652,16616,92,-304,-4
5816000,-844,616,16628,129,-290,-14
5818000,-860,644,16544,105,-299,-9
5820004,-876,680,16668,78,-296,-23
5822000,-844,692,16588,114,-256,6
5824000,-920,668,16556,127,-281,-34
5826004,-884,632,16700,133,-312,-19
5828000,-884,636,16664,106,-269,12
5830000,-872,700,16680,97,-310,-48
5832000,-876,664,16668,122,-283,-17
5834004,-888,624,16644,123,-252,-1
5836000,-928,712,16704,127,-326,-30
5838000,-956,736,16616,99,-287,-41
5840000,-928,712,16616,103,-317,-14
5842000,-892,720,16656,92,-290,-10
5844000,-872,644,16568,115,-279,-4
5846004,-908,712,16688,125,-283,-11
5848000,-948,696,16636,108,-290,-29
5850000,-868,616,16676,118,-311,-31
5852004,-924,716,16628,101,-314,8
5854000,-824,752,16692,116,-309,4
5856000,-872,688,16552,118,-299,-15
5858000,-896,704,16636,103,-326,-37
5860000,-924,668,16628,113,-305,-18
5862000,-856,756,16600,146,-332,8
5864000,-884,696,16532,78,-306,-33
5866000,-792,656,16588,101,-291,-2
5868000,-848,628,16680,83,-282,-43
5870000,-916,632,16636,101,-277,-29
5872004,-896,668,16700,130,-322,1
5874000,-904,616,16528,96,-294,-20
5876000,-832,624,16568,69,-302,0
5878000,-856,652,16680,87,-301,-30
5880000,-836,672,16628,113,-282,-25
5882000,-892,680,16636,101,-272,2
5884000,-852,672,16656,84,-322,-1
5886000,-864,684,16688,114,-300,-26
5888000,-852,616,16576,107,-291,-15
5890000,-808,648,16648,129,-306,-16
5892000,-860,684,16644,116,-263,-16
5894000,-812,696,16664,90,-299,-50
5896000,-920,716,16564,85,-298,-2
5898000,-900,672,16600,95,-311,-27
5900000,-860,584,16608,129,-302,-34
5902000,-880,652,16616,126,-279,-23
5904000,-864,656,16628,87,-312,27
5906000,-916,688,16472,126,-266,-26
5908000,-840,716,16544,121,-307,24
5910000,-916,688,16660,124,-305,-11
5912000,-872,688,16660,127,-238,-20
5914000,-884,676,16636,94,-289,-32
5916000,-892,644,16672,122,-301,-43
5918000,-900,684,16468,94,-330,-47
5920000,-912,676,16628,87,-279,26
5922000,-804,692,16748,117,-287,-5
5924000,-888,688,16628,120,-298,-39
5926000,-876,764,16676,91,-292,-4
5928000,-904,664,16592,101,-312,-26
5930000,-900,720,16624,91,-338,-17
5932000,-912,680,16692,108,-261,-24
5934000,-856,624,16540,136,-307,-25
5936000,-808,700,16684,83,-291,0
5938000,-864,688,16596,101,-298,-23
5940000,-920,696,16604,125,-270,2
5942000,-912,724,16580,108,-311,-32
5944000,-872,676,16636,101,-350,-19
5946000,-864,640,16580,116,-313,8
5948004,-864,668,16724,87,-288,-4
5950000,-884,676,16660,119,-335,25
5952000,-792,700,16556,96,-338,-34
5954000,-928,712,16716,109,-301,-19
5956000,-920,680,16652,109,-292,20
5958000,-888,652,16620,144,-304,-24
5960000,-908,668,16636,78,-310,-33
5962000,-812,704,16660,106,-288,-47
5964000,-856,668,16560,93,-293,-12
5966000,-852,672,16652,108,-320,-7
5968000,-844,576,16620,147,-291,-19
5970000,-768,632,16532,113,-291,-33
5972000,-828,648,16584,94,-306,-19
5974000,-888,696,16516,115,-312,-22
5976000,-840,624,16784,114,-285,-9
5978000,-848,636,16648,111,-319,-9
5980000,-836,652,16652,103,-277,-18
5982000,-800,732,16640,144,-319,-6
5984000,-896,732,16652,128,-279,-37
5986000,-832,620,16652,99,-309,-18
5988000,-900,664,16644,119,-307,-48
5990000,-872,692,16632,110,-287,-30
5992000,-904,652,16688,103,-262,-3
5994000,-872,652,16600,132,-275,-14
5996004,-844,692,16636,70,-332,28
5998000,-872,676,16544,120,-244,-23
6000000,-920,616,16724,123,-304,-48
6002004,-860,696,16720,98,-266,6
6004000,-900,704,16564,95,-299,-14
6006000,-876,644,16604,76,-308,-35
6008004,-868,680,16632,113,-285,-31
6010000,-920,584,16680,86,-287,-44
6012000,-872,704,16748,111,-321,-8
6014000,-864,704,16748,95,-265,-13
6016000,-904,624,16660,140,-264,-20
6018000,-896,688,16520,84,-309,-29
6020000,-916,744,16568,98,-328,-26
6022000,-916,604,16692,119,-289,-5
6024000,-856,632,16640,112,-287,-34
6026000,-832,732,16552,116,-296,12
6028000,-924,672,16736,108,-298,-35
6030000,-828,648,16732,100,-304,-32
6032000,-912,636,16612,132,-301,2
6034000,-844,684,16632,120,-293,-20
6036000,-868,696,16660,99,-270,-21
6038004,-876,752,16632,83,-295,-7
6040000,-920,716,16668,110,-327,-2
6042000,-860,660,16632,57,-269,8
6044000,-884,668,16720,95,-302,-27
6046000,-900,628,16684,142,-301,-24
6048004,-780,664,16672,95,-287,4
6050000,-924,712,16716,80,-277,-8
6052000,-832,684,16680,70,-328,-21
6054000,-864,664,16588,150,-304,-21
6056000,-856,660,16600,137,-277,29
6058000,-876,600,16636,107,-313,-7
6060000,-876,672,16652,90,-271,-14
6062000,-856,692,16672,100,-287,-27
6064000,-880,656,16596,133,-318,-34
6066000,-804,592,16488,90,-300,-16
6068000,-872,732,16568,95,-272,-37
6070000,-892,688,16720,109,-266,16
6072000,-888,740,16756,115,-316,-13
6074000,-952,712,16556,77,-297,-38
6076004,-892,660,16564,105,-323,-13
6078000,-924,732,16516,109,-270,-44
6080000,-816,712,16644,120,-273,-17
6082000,-872,668,16608,95,-255,-26
6084000,-880,608,16652,79,-298,-3
6086000,-820,652,16612,105,-304,-24
6088000,-876,656,16588,100,-324,4
6090000,-904,676,16592,123,-275,4
6092000,-904,680,16696,119,-255,-14
6094000,-880,700,16600,126,-275,-35
6096000,-820,664,16700,77,-296,-27
6098000,-896,712,16596,88,-317,3
6100000,-820,628,16512,88,-312,-29
6102000,-876,720,16616,107,-281,-8
6104000,-896,716,16532,83,-301,-20
6106000,-896,744,16548,124,-308,-21
6108000,-904,744,16676,95,-291,3
6110000,-848,736,16612,113,-298,1
6112000,-804,716,16572,119,-268,-23
6114000,-852,680,16668,80,-286,-35
6116000,-844,680,16640,93,-305,-20
6118000,-860,676,16688,108,-279,-35
6120000,-872,596,16652,92,-311,0
6122000,-820,652,16620,103,-319,-33
6124004,-824,708,16580,135,-275,-33
6126000,-924,620,16660,150,-298,-49
6128000,-880,704,16656,131,-273,4
6130004,-864,724,16660,96,-291,-10
6132000,-844,700,16608,87,-287,-22
6134000,-856,596,16692,105,-288,-24
6136004,-836,664,16588,114,-283,-11
6138000,-916,640,16596,112,-316,2
6140000,-872,720,16652,119,-267,-1
6142000,-876,732,16684,108,-317,4
6144000,-896,636,16576,104,-288,-19
6146000,-924,636,16688,106,-277,-14
6148000,-876,720,16696,124,-280,-6
6150000,-872,660,16724,116,-301,-27
6152000,-812,676,16568,129,-306,-30
6154000,-860,636,16652,130,-275,-10
6156000,-788,688,16644,140,-286,-28
6158000,-816,604,16648,87,-323,-16
6160000,-900,708,16584,117,-272,-28
6162000,-892,700,16568,86,-293,-26
6164000,-896,680,16612,61,-292,-9
6166000,-948,644,16544,110,-309,-4
6168000,-792,636,16548,139,-294,-53
6170000,-836,652,16672,116,-304,-11
6172000,-896,692,16676,90,-271,4
6174000,-860,680,16616,112,-301,-6
6176000,-896,648,16660,124,-279,-10
6178000,-832,672,16616,108,-305,-4
6180000,-888,656,16664,92,-332,-13
6182000,-840,680,16656,122,-308,-52
6184000,-916,664,16668,101,-283,-1
6186000,-880,704,16536,99,-287,-8
6188000,-896,732,16500,137,-323,-16
6190000,-812,616,16632,134,-291,-30
6192000,-884,616,16708,120,-309,-18
6194000,-864,692,16644,79,-291,-16
6196000,-840,696,16484,108,-319,-15
6198000,-936,672,16512,121,-306,-8
6200000,-864,656,16664,80,-289,2
6202000,-864,700,16656,97,-285,-10
6204004,-852,640,16612,115,-290,-33
6206000,-792,612,16604,109,-304,-18
6208000,-892,672,16668,117,-295,-42
6210000,-860,676,16612,107,-314,-33
6212000,-852,636,16580,135,-280,-16
6214000,-880,616,16644,113,-273,-20
6216000,-928,672,16672,104,-267,9
6218000,-876,656,16592,93,-307,-33
6220000,-832,748,16608,82,-294,-28
6222000,-912,644,16624,108,-286,-8
6224000,-924,660,16688,144,-277,-7
6226000,-860,704,16612,115,-285,-4
6228000,-868,632,16564,84,-303,-4
6230004,-856,704,16552,94,-306,-18
6232000,-844,648,16592,90,-307,-35
6234000,-872,704,16732,109,-265,-17
6236000,-916,676,16588,139,-284,-30
6238000,-952,680,16664,123,-318,-7
6240000,-872,668,16572,95,-311,-49
6242000,-872,696,16548,111,-288,-56
6244000,-916,660,16596,114,-297,-41
6246000,-824,616,16660,125,-249,-16
6248000,-872,664,16592,89,-272,-2
6250000,-848,676,16664,99,-284,-1
6252004,-904,740,16580,58,-309,-24
6254000,-872,652,16624,127,-325,-14
6256000,-880,760,16572,92,-289,-31
6258004,-844,720,16640,111,-236,-15
6260000,-896,740,16620,87,-249,-26
6262000,-892,708,16628,111,-303,-17
6264000,-932,680,16592,110,-306,-8
6266000,-868,692,16636,115,-275,-10
6268000,-864,612,16592,130,-265,-9
6270000,-848,684,16596,112,-292,-16
6272000,-888,688,16528,100,-309,-46
6274000,-876,700,16652,84,-329,-7
6276000,-876,636,16652,104,-308,-15
6278000,-908,648,16608,129,-263,-34
6280000,-820,656,16716,144,-275,-7
6282000,-816,600,16548,100,-301,-13
6284000,-856,624,16592,81,-293,-22
6286000,-852,624,16604,73,-299,13
6288000,-856,684,16664,80,-304,-20
6290000,-848,640,16716,99,-270,12
6292000,-860,656,16608,121,-299,-14
6294000,-804,572,16640,89,-322,0
6296000,-816,596,16568,105,-306,-11
6298000,-888,668,16576,97,-292,-23
6300000,-876,652,16640,106,-320,-22
6302000,-784,624,16728,105,-261,-14
6304004,-756,692,16688,130,-266,-14
6306000,-840,696,16640,111,-320,-23
6308000,-920,628,16624,126,-313,-34
6310000,-888,652,16616,116,-306,-9
6312004,-876,672,16528,119,-251,-7
6314000,-872,624,16720,111,-265,-31
6316000,-800,576,16688,62,-303,-44
6318000,-900,628,16588,140,-310,-27
6320000,-880,700,16636,112,-279,-22
6322000,-844,696,16660,117,-272,-51
6324000,-892,668,16592,103,-276,-9
6326000,-948,660,16684,86,-298,-41
6328000,-832,692,16588,120,-326,-13
6330000,-864,684,16672,125,-270,-8
6332004,-928,716,16668,115,-303,-26
6334000,-872,684,16652,142,-294,-54
6336000,-900,700,16648,149,-295,-34
6338000,-920,696,16672,79,-292,-18
6340000,-852,724,16684,110,-294,-7
6342000,-912,720,16600,94,-311,-24
6344000,-892,692,16548,106,-295,-62
6346000,-932,672,16572,111,-296,-20
6348000,-888,704,16576,115,-277,2
6350000,-924,752,16628,85,-296,-31
6352000,-884,668,16684,75,-338,-12
6354000,-796,672,16644,108,-318,-27
6356000,-800,652,16588,102,-283,-41
6358004,-844,616,16716,124,-262,0
6360000,-856,680,16676,81,-262,-42
6362000,-876,684,16600,79,-328,-21
6364000,-792,688,16652,94,-333,-30
6366000,-808,660,16536,129,-268,-6
6368000,-840,620,16700,93,-270,4
6370000,-824,616,16712,145,-269,-12
6372000,-828,708,16652,108,-274,-11
6374000,-844,620,16688,101,-317,-10
6376000,-884,644,16616,144,-293,-9
6378000,-884,624,16616,101,-288,-1
6380004,-896,632,16732,80,-269,-31
6382000,-852,636,16592,114,-310,-5
6384000,-864,648,16684,108,-309,-38
6386000,-824,644,16548,85,-310,0
6388000,-876,696,16660,124,-288,-16
6390000,-832,660,16656,136,-263,-36
6392000,-776,720,16616,111,-287,14
6394000,-904,640,16668,101,-295,0
6396000,-876,644,16716,101,-313,-29
6398000,-948,636,16660,124,-309,-29
6400000,-960,656,16584,122,-257,-14
6402000,-896,616,16548,143,-274,-23
6404000,-892,700,16764,56,-315,-9
6406000,-860,700,16648,119,-339,4
6408000,-904,672,16544,96,-311,-21
6410000,-844,712,16524,108,-313,-33
6412000,-848,664,16572,120,-326,6
6414000,-904,636,16572,111,-298,-26
6416004,-904,692,16588,89,-275,0
6418000,-952,676,16680,81,-291,-70
6420000,-876,724,16580,107,-338,-30
6422000,-868,664,16564,124,-262,-25
6424000,-872,708,16684,113,-295,-19
6426000,-920,804,16680,112,-290,-32
6428000,-908,724,16676,109,-279,-4
6430000,-884,692,16572,84,-277,-6
6432000,-908,692,16720,123,-315,-4
6434000,-888,632,16560,119,-294,21
6436000,-856,664,16624,100,-306,-24
6438000,-880,704,16640,127,-281,-10
6440000,-916,728,16636,102,-331,-5
6442000,-852,712,16556,79,-309,-1
6444000,-844,668,16648,142,-267,6
6446000,-864,616,16596,142,-314,-43
6448000,-828,704,16584,95,-311,10
6450000,-908,656,16716,98,-310,6
6452004,-904,704,16644,127,-297,-5
6454000,-868,668,16724,131,-301,-2
6456000,-820,648,16588,131,-273,-10
6458000,-840,688,16720,105,-285,-42
6460004,-896,688,16596,122,-267,6
6462000,-856,672,16608,109,-286,-15
6464000,-908,708,16620,99,-313,-3
6466000,-888,656,16576,119,-283,9
6468000,-800,648,16608,110,-276,-37
6470000,-856,612,16552,77,-294,-39
6472000,-900,656,16616,122,-291,-24
6474000,-896,620,16656,91,-309,-3
6476000,-816,596,16680,104,-283,-26
6478000,-900,648,16684,137,-299,-21
6480000,-924,616,16648,108,-298,-4
6482000,-840,672,16556,127,-276,-60
6484000,-904,680,16644,107,-296,10
6486004,-892,684,16512,58,-311,-16
6488000,-880,692,16592,96,-308,-24
6490000,-876,708,16624,104,-288,-24
6492000,-840,668,16652,137,-268,-19
6494000,-916,720,16588,120,-270,-26
6496000,-816,716,16700,84,-307,-33
6498000,-876,680,16608,90,-280,-6
6500000,-860,692,16628,131,-337,9
6502000,-776,680,16724,102,-276,-32
6504000,-880,672,16660,116,-297,-29
6506000,-904,740,16556,93,-301,-19
6508004,-884,672,16568,86,-314,-9
6510000,-868,680,16560,116,-300,-3
6512000,-924,676,16684,108,-277,-9
6514000,-932,700,16648,148,-289,-9
6516000,-876,664,16740,87,-285,-20
6518000,-864,708,16556,106,-290,-12
6520000,-828,660,16568,109,-315,-30
6522000,-816,596,16640,113,-308,26
6524004,-848,672,16584,104,-262,-15
6526000,-904,696,16696,160,-287,-9
6528000,-952,724,16584,121,-295,9
6530000,-988,672,16624,88,-297,-14
6532000,-896,700,16652,87,-316,-10
6534000,-876,656,16576,164,-316,-18
6536000,-824,676,16656,106,-267,-18
6538000,-848,652,16632,117,-290,10
6540000,-856,652,16608,77,-312,-15
6542000,-872,720,16588,121,-316,-26
6544004,-824,676,16560,106,-317,-41
6546000,-856,612,16592,96,-307,-25
6548000,-920,684,16632,119,-256,-32
6550000,-884,664,16788,116,-273,-21
6552000,-856,708,16568,99,-337,-43
6554000,-864,660,16660,104,-326,-19
6556000,-860,696,16600,115,-276,-2
6558000,-828,708,16684,134,-270,16
6560004,-912,668,16580,111,-291,-54
6562000,-924,728,16720,81,-338,-49
6564000,-884,700,16716,122,-319,-10
6566000,-836,656,16616,78,-320,-5
6568000,-788,660,16560,113,-292,-13
6570000,-864,688,16668,122,-323,-13
6572000,-884,712,16596,108,-297,-31
6574000,-888,728,16540,115,-309,1
6576000,-896,644,16612,61,-303,-8
6578000,-956,648,16704,106,-288,-17
6580000,-904,664,16660,148,-280,-17
6582000,-928,636,16708,109,-309,6
6584000,-900,732,16648,118,-333,-15
6586000,-916,720,16640,135,-301,-16
6588004,-892,672,16600,118,-279,-8
6590000,-892,688,16604,94,-283,-13
6592000,-908,668,16680,112,-273,-30
6594000,-864,704,16680,125,-295,-9
6596000,-856,712,16684,121,-314,-17
6598000,-868,700,16592,133,-319,6
6600000,-884,624,16620,100,-289,-13
6602000,-864,572,16620,116,-269,-13
6604000,-900,704,16588,135,-271,-37
6606000,-892,748,16640,102,-315,-8
6608000,-932,600,16712,112,-300,-42
6610000,-868,620,16652,108,-305,-12
6612000,-872,644,16640,121,-273,-61
6614000,-920,704,16624,132,-286,-33
6616000,-868,720,16716,113,-325,0
6618000,-816,692,16588,121,-299,-40
6620000,-800,632,16600,119,-314,-10
6622000,-848,668,16600,106,-288,-8
6624000,-860,680,16564,142,-295,-13
6626000,-928,688,16716,101,-305,-13
6628000,-844,664,16700,122,-289,-18
6630000,-828,688,16532,89,-319,-14
6632000,-900,728,16724,111,-292,-37
6634000,-840,680,16560,119,-275,-7
6636000,-860,616,16652,82,-318,-50
6638000,-836,716,16604,110,-283,-12
6640000,-856,636,16568,112,-301,-23
6642000,-832,572,16568,151,-302,-24
6644000,-864,616,16476,95,-305,-41
6646000,-868,668,16532,122,-240,-24
6648000,-868,676,16624,128,-305,-69
6650000,-892,676,16676,109,-320,6
6652004,-872,656,16644,89,-324,-14
6654000,-916,688,16604,126,-305,-10
