micros,ax,ay,az,gx,gy,gz
0,-824,696,16664,97,-290,-35
2000,-848,752,16688,131,-314,-26
4000,-776,748,16620,117,-265,7
6000,-776,712,16596,126,-277,-26
8000,-804,720,16692,109,-270,-22
10000,-776,708,16648,104,-315,13
12000,-764,776,16696,117,-291,-25
14000,-784,732,16580,109,-268,-32
16000,-760,704,16616,109,-284,-27
18000,-740,728,16696,149,-304,-30
20000,-784,728,16712,116,-278,-31
22000,-816,724,16604,143,-282,1
24000,-836,720,16620,115,-249,-37
26000,-848,728,16568,99,-292,-19
28000,-800,720,16632,105,-288,-7
30000,-816,712,16604,80,-306,-22
32000,-772,720,16620,128,-306,7
34000,-728,660,16624,132,-282,-24
36000,-800,748,16640,122,-306,-19
38000,-812,688,16680,91,-309,-56
40000,-788,740,16636,95,-287,2
42000,-844,728,16620,102,-300,-23
44004,-756,696,16728,151,-316,-25
46000,-768,692,16584,81,-324,-9
48000,-788,728,16712,122,-283,-28
50000,-824,740,16628,129,-259,15
52000,-764,736,16664,133,-278,-23
54000,-796,724,16768,91,-295,-17
56000,-788,748,16660,115,-306,-36
58000,-824,764,16624,119,-284,-12
60000,-800,784,16688,141,-277,0
62000,-828,716,16744,116,-302,-17
64000,-816,692,16664,130,-285,-19
66000,-784,752,16704,112,-326,-3
68000,-788,732,16620,130,-284,-42
70000,-792,772,16708,114,-295,-22
72000,-804,684,16640,135,-275,-15
74000,-804,728,16708,136,-279,-15
76000,-812,752,16660,132,-293,-22
78000,-792,696,16616,119,-304,4
80004,-748,736,16584,109,-289,-43
82000,-768,688,16696,117,-315,-12
84000,-796,660,16608,127,-301,15
86000,-724,716,16712,85,-304,4
88000,-800,692,16632,92,-285,-31
90000,-820,720,16804,148,-278,-24
92000,-812,736,16640,92,-266,-26
94000,-796,724,16696,102,-294,-26
96000,-864,716,16696,134,-311,-12
98000,-800,736,16688,101,-297,8
100004,-820,744,16632,140,-277,-9
102000,-800,660,16668,136,-255,-32
104000,-836,756,16716,123,-283,-3
106004,-772,800,16688,110,-286,3
108000,-768,784,16640,125,-282,-29
110000,-780,712,16648,114,-275,-4
112000,-792,792,16680,104,-288,-12
114000,-788,692,16540,112,-283,-21
116000,-800,628,16672,121,-319,-19
118000,-792,676,16700,127,-278,-34
120000,-760,708,16708,100,-293,-28
122000,-852,756,16536,114,-295,-7
124000,-836,644,16624,133,-283,-5
126000,-836,676,16788,92,-313,-17
128000,-780,748,16644,110,-313,-17
130000,-788,720,16692,115,-290,2
132000,-716,720,16684,131,-279,-11
134000,-764,712,16592,108,-306,-15
136000,-732,748,16672,123,-292,-15
138000,-792,724,16640,131,-300,-17
140004,-760,712,16616,119,-299,-5
142000,-776,688,16740,135,-287,-24
144000,-728,712,16672,117,-286,-26
146000,-852,648,16576,108,-328,-45
148000,-776,692,16632,93,-290,5
150000,-840,720,16512,141,-283,-12
152000,-716,676,16616,108,-320,-15
154000,-744,716,16656,109,-220,-7
156000,-828,712,16668,133,-305,-10
158000,-776,708,16664,109,-275,-18
160000,-792,708,16704,84,-292,15
162000,-808,728,16668,109,-308,-38
164000,-812,792,16736,105,-271,-5
166000,-808,656,16616,137,-297,-11
168000,-796,708,16728,129,-282,-13
170000,-844,748,16696,145,-273,16
172000,-828,728,16556,141,-324,-9
174000,-768,720,16728,106,-291,-28
176000,-812,720,16756,127,-271,-43
178000,-792,680,16616,84,-340,-32
180000,-776,712,16724,113,-287,5
182000,-756,692,16664,118,-296,-14
184000,-776,720,16572,114,-327,-38
186000,-840,712,16644,103,-303,-14
188000,-728,676,16648,120,-279,-15
190000,-788,748,16640,104,-271,-22
192000,-756,724,16696,97,-297,-10
194000,-876,696,16688,116,-309,4
196000,-800,736,16624,92,-304,-21
198000,-792,756,16660,100,-287,-14
200000,-824,708,16612,91,-286,-27
202000,-720,684,16644,134,-284,-2
204000,-836,684,16660,126,-329,-16
206000,-808,676,16620,147,-288,-14
208004,-728,664,16748,105,-313,-7
210000,-760,700,16608,103,-301,-64
212000,-824,716,16688,117,-288,-19
214000,-756,740,16784,95,-277,-23
216000,-800,744,16596,125,-293,-25
218000,-804,768,16592,121,-278,-5
220000,-788,704,16588,131,-291,10
222000,-820,744,16720,133,-292,5
224000,-788,684,16548,124,-290,-2
226000,-844,700,16708,121,-266,-44
228004,-728,740,16604,104,-279,-26
230000,-724,696,16668,133,-311,7
232000,-764,740,16596,86,-278,-4
234004,-796,740,16660,96,-301,3
236000,-804,716,16688,99,-294,1
238000,-788,760,16580,145,-296,-8
240000,-748,724,16680,94,-332,-28
242000,-736,784,16640,139,-281,-38
244000,-804,736,16600,86,-317,-13
246000,-808,732,16620,102,-282,-35
248000,-768,776,16644,137,-285,-31
250000,-788,756,16588,122,-269,-26
252000,-796,708,16740,95,-312,6
254000,-756,728,16580,116,-281,7
256000,-784,760,16656,118,-264,-6
258000,-820,788,16728,109,-290,-13
260000,-840,688,16676,99,-276,1
262000,-736,632,16640,137,-277,-43
264000,-772,692,16664,138,-285,-25
266000,-768,716,16624,133,-259,-5
268000,-808,776,16688,123,-280,-30
270000,-760,692,16580,111,-297,-15
272000,-752,680,16704,126,-291,-25
274000,-756,732,16580,72,-280,-11
276000,-776,684,16672,129,-307,-28
278000,-768,708,16640,88,-318,-1
280000,-760,696,16680,124,-300,-13
282000,-788,656,16632,122,-258,-21
284000,-804,724,16748,123,-288,-18
286000,-776,700,16564,112,-268,-30
288000,-828,724,16644,102,-289,-15
290000,-864,716,16712,116,-269,-39
292000,-820,684,16668,117,-253,10
294000,-800,660,16596,134,-285,4
296000,-824,724,16580,117,-347,-19
298000,-800,632,16580,113,-257,-24
300004,-812,740,16588,121,-301,-18
302000,-700,768,16596,116,-266,10
304000,-812,712,16760,109,-314,13
306000,-724,696,16656,136,-259,-25
308000,-872,764,16632,107,-282,10
310000,-828,724,16600,121,-292,-36
312000,-768,668,16700,117,-279,-19
314000,-732,772,16544,111,-299,-25
316000,-748,716,16796,98,-284,-16
318000,-800,712,16576,127,-273,-35
320000,-812,740,16680,107,-291,0
322000,-796,700,16704,108,-284,-30
324000,-796,720,16644,129,-318,14
326000,-772,708,16676,112,-291,-10
328000,-764,716,16700,114,-305,-16
330000,-820,676,16612,141,-289,-50
332000,-776,684,16676,86,-291,1
334000,-768,668,16596,135,-293,-18
336000,-808,808,16596,112,-300,6
338000,-776,736,16672,77,-306,19
340000,-860,744,16656,133,-302,-26
342000,-796,668,16628,111,-295,15
344000,-792,672,16696,113,-324,-32
346000,-864,692,16572,109,-283,-19
348000,-740,708,16704,115,-293,-26
350004,-816,788,16548,117,-299,5
352000,-796,800,16536,98,-284,-6
354000,-792,716,16756,133,-292,-40
356000,-804,744,16564,121,-294,-2
358000,-728,692,16600,114,-279,-36
360000,-780,680,16804,94,-281,-17
362004,-756,692,16680,127,-311,-15
364000,-760,700,16648,107,-274,-10
366000,-792,728,16620,101,-291,-7
368000,-864,792,16632,85,-323,-11
370000,-752,664,16604,110,-274,-10
372000,-764,688,16640,140,-290,-44
374000,-784,712,16648,110,-293,-7
376000,-732,724,16720,110,-300,-23
378000,-768,720,16676,123,-244,-41
380000,-796,672,16716,125,-322,-36
382000,-772,700,16604,121,-288,-46
384000,-812,720,16664,143,-309,-30
386000,-732,728,16656,104,-319,2
388000,-780,716,16668,102,-270,-32
390000,-812,720,16664,111,-308,-15
392000,-748,712,16668,129,-285,-17
394000,-776,684,16584,125,-280,-30
396004,-740,696,16696,111,-275,8
398000,-724,692,16604,100,-310,-15
400000,-784,716,16656,126,-291,-32
402000,-764,724,16640,130,-285,-6
404000,-788,736,16624,88,-284,-6
406000,-780,764,16604,110,-313,-41
408000,-816,724,16588,125,-348,-5
410000,-764,728,16668,81,-284,-6
412000,-796,684,16572,120,-283,-5
414000,-800,708,16632,126,-235,-25
416000,-824,688,16608,116,-309,-13
418000,-804,700,16588,108,-272,-23
420000,-808,620,16644,112,-265,-38
422000,-756,716,16712,93,-277,-7
424000,-776,760,16736,125,-286,8
426000,-796,668,16748,132,-304,-5
428000,-844,748,16640,92,-299,-21
430000,-800,736,16584,104,-307,-5
432000,-732,708,16588,132,-250,-22
434000,-736,680,16740,110,-288,-34
436000,-776,704,16688,109,-280,-16
438000,-748,724,16716,125,-322,-30
440000,-836,696,16644,95,-283,-26
442000,-784,712,16684,128,-310,-30
444000,-852,728,16672,111,-332,-33
446000,-804,700,16604,129,-295,-16
448000,-780,744,16664,107,-276,-7
450000,-712,716,16568,126,-283,-12
452000,-788,688,16660,127,-309,-15
454000,-780,748,16624,106,-298,-14
456000,-736,716,16624,117,-335,-16
458000,-784,704,16692,124,-308,-8
460000,-824,684,16716,123,-284,-9
462000,-780,732,16692,88,-300,-2
464000,-756,768,16648,146,-275,-12
466000,-772,696,16632,139,-253,8
468000,-756,708,16632,123,-311,-14
470000,-708,708,16772,114,-336,8
472000,-860,720,16588,100,-313,-28
474000,-760,668,16640,136,-276,-18
476000,-792,736,16612,109,-295,-2
478004,-828,772,16656,113,-272,22
480000,-700,740,16728,135,-279,-17
482000,-764,760,16712,132,-292,-39
484000,-808,720,16672,134,-308,8
486000,-724,656,16656,131,-297,-24
488000,-800,688,16656,78,-310,-35
490004,-788,684,16648,98,-273,-38
492000,-832,672,16684,113,-305,-11
494000,-748,688,16636,113,-323,-2
496000,-732,744,16536,103,-272,-6
498000,-704,692,16588,119,-272,-31
500000,-764,680,16812,127,-239,-45
502004,-772,728,16684,128,-306,-20
504000,-840,704,16576,112,-332,14
506000,-848,688,16644,75,-282,-16
508000,-812,688,16628,124,-299,-18
510000,-776,736,16588,138,-310,-27
512000,-776,732,16612,123,-319,-4
514000,-748,708,16708,117,-288,-42
516004,-792,704,16568,112,-304,0
518004,-796,644,16648,72,-289,5
520000,-816,724,16640,149,-298,-12
522000,-800,712,16620,118,-304,-12
524000,-816,736,16624,124,-310,-4
526000,-768,696,16636,107,-306,-4
528000,-816,692,16548,100,-268,-37
530000,-736,656,16624,94,-307,-3
532000,-820,744,16628,110,-288,-3
534000,-780,752,16716,108,-277,4
536000,-772,780,16668,105,-300,-22
538000,-816,680,16680,94,-288,-17
540000,-816,812,16592,119,-301,14
542000,-808,676,16656,96,-261,-37
544000,-772,680,16648,149,-265,-28
546000,-812,676,16728,99,-306,-10
548000,-804,664,16684,110,-285,-8
550000,-796,728,16640,155,-294,-28
552000,-800,704,16768,136,-307,-9
554000,-792,708,16696,76,-299,-33
556000,-784,708,16552,91,-278,-17
558000,-740,700,16656,105,-293,-36
560004,-776,788,16676,99,-252,-41
562000,-728,704,16576,108,-284,23
564000,-776,720,16564,124,-299,-5
566000,-836,736,16548,86,-272,-30
568000,-776,652,16720,72,-257,-27
570000,-832,664,16608,139,-283,-21
572000,-768,644,16644,129,-290,-21
574000,-768,724,16660,109,-277,19
576004,-768,700,16724,122,-274,-16
578000,-788,684,16636,91,-287,-15
580000,-776,728,16644,127,-273,-19
582000,-728,692,16580,114,-309,-18
584000,-740,728,16624,120,-265,-25
586000,-760,672,16656,86,-308,-12
588000,-812,700,16684,126,-309,9
590000,-764,704,16604,128,-238,-39
592000,-808,736,16688,117,-294,-15
594000,-764,712,16728,121,-314,-25
596000,-772,652,16656,121,-280,-9
598000,-776,712,16572,141,-307,-38
600000,-784,680,16624,145,-315,-37
602000,-740,752,16652,104,-299,-23
604000,-680,700,16712,171,-279,2
606000,-736,640,16680,123,-274,-6
608000,-748,716,16680,117,-300,-30
610000,-824,688,16652,101,-294,4
612004,-760,736,16712,120,-292,-43
614000,-768,676,16696,107,-330,11
616000,-780,740,16664,66,-280,-1
618004,-840,724,16576,118,-301,-9
620000,-844,720,16624,112,-273,-16
622000,-788,720,16576,84,-283,-49
624000,-816,660,16660,117,-290,-11
626000,-792,656,16580,117,-299,1
628000,-768,716,16704,88,-311,-25
630000,-760,636,16556,125,-311,-15
632000,-752,700,16704,125,-305,-18
634000,-812,764,16536,118,-272,-11
636000,-848,724,16708,91,-276,-11
638000,-744,676,16684,91,-290,1
640000,-852,680,16628,94,-311,-6
642000,-788,712,16596,124,-286,5
644000,-800,748,16692,105,-299,-12
646000,-820,664,16664,91,-299,3
648000,-800,648,16700,114,-290,-13
650000,-756,720,16708,130,-313,-23
652000,-808,704,16692,97,-283,4
654000,-728,732,16664,124,-280,-32
656000,-884,752,16576,123,-304,-4
658000,-812,736,16636,126,-276,19
660000,-768,692,16592,115,-303,7
662000,-816,712,16612,112,-322,-1
664000,-824,712,16664,124,-272,-7
666000,-784,692,16616,118,-308,-46
668000,-788,772,16552,124,-291,-10
670000,-860,736,16640,137,-275,27
672000,-800,712,16668,149,-305,-22
674000,-788,704,16720,153,-300,-10
676000,-812,792,16696,108,-296,-36
678000,-768,696,16680,120,-311,-41
680000,-760,728,16648,125,-269,-10
682000,-772,676,16580,82,-302,-23
684004,-792,712,16656,115,-240,3
686000,-784,744,16708,118,-258,-13
688000,-756,696,16844,112,-265,-21
690000,-752,648,16616,102,-297,-28
692000,-752,720,16736,90,-273,-44
694000,-768,652,16724,109,-321,6
696000,-840,740,16648,130,-322,9
698000,-820,744,16592,122,-276,-8
700000,-764,720,16776,123,-284,-10
702000,-764,732,16708,117,-285,0
704000,-816,720,16756,113,-287,-14
706000,-776,688,16580,101,-297,-27
708000,-780,740,16696,92,-296,-31
710000,-832,692,16628,90,-309,-20
712000,-828,688,16628,111,-281,17
714000,-784,680,16652,138,-302,2
716000,-820,720,16684,163,-280,-12
718000,-764,744,16760,129,-308,-17
720000,-808,768,16676,113,-309,-10
722000,-796,708,16696,76,-305,-44
724000,-756,676,16680,113,-295,4
726000,-824,752,16636,145,-283,-27
728000,-804,764,16636,128,-300,-26
730000,-784,740,16556,124,-246,-22
732000,-808,768,16664,107,-297,-51
734004,-788,764,16636,115,-288,-1
736000,-788,672,16648,131,-278,-10
738000,-760,736,16604,100,-295,-8
740000,-832,676,16760,129,-290,-9
742000,-768,724,16628,126,-292,-43
744000,-816,764,16552,142,-272,-18
746004,-792,712,16612,132,-316,-20
748000,-752,716,16568,95,-275,-31
750000,-780,692,16720,96,-307,-1
752000,-824,724,16568,144,-270,-52
754000,-784,732,16624,116,-306,-27
756000,-784,672,16648,156,-273,-5
758000,-776,716,16664,136,-273,1
760000,-736,712,16648,124,-297,-47
762000,-828,668,16588,129,-318,-37
764000,-772,716,16572,103,-294,-11
766000,-712,720,16668,131,-292,-9
768000,-772,724,16584,135,-265,17
770000,-788,680,16664,134,-319,-1
772000,-748,756,16600,120,-293,-15
774000,-788,768,16624,158,-267,-4
776000,-824,756,16760,81,-305,-9
778000,-804,732,16708,116,-300,-15
780004,-852,724,16588,119,-300,-23
782000,-764,708,16696,108,-293,8
784000,-808,716,16640,131,-273,-3
786000,-792,696,16556,138,-289,-14
788000,-800,744,16660,112,-309,-20
790000,-820,704,16628,121,-317,-13
792000,-796,684,16628,128,-318,-54
794000,-816,664,16668,119,-283,15
796000,-780,688,16632,109,-280,-8
798000,-740,732,16792,101,-316,-23
800000,-732,728,16624,92,-299,-4
802000,-748,676,16648,118,-281,-1
804000,-764,668,16656,103,-323,-21
806000,-744,712,16620,89,-277,-3
808000,-744,744,16708,95,-286,2
810000,-780,700,16608,143,-311,-14
812000,-824,712,16656,125,-269,-35
814000,-736,752,16764,116,-299,-26
816000,-788,716,16648,121,-299,-14
818000,-768,672,16588,125,-312,-45
820000,-820,752,16628,140,-269,-9
822000,-752,724,16660,92,-327,-31
824000,-804,728,16632,120,-339,-16
826000,-800,732,16708,96,-263,-2
828000,-852,672,16672,96,-284,-18
830000,-772,724,16616,127,-287,-27
832000,-784,736,16668,127,-294,-19
834000,-900,728,16712,89,-284,12
836000,-852,668,16616,114,-260,-18
838000,-760,736,16640,102,-338,-12
840000,-824,748,16560,101,-303,-33
842000,-788,716,16584,103,-325,-15
844000,-820,680,16596,107,-291,1
846000,-820,692,16740,108,-291,-18
848000,-740,704,16644,108,-268,-10
850000,-828,692,16572,73,-325,-59
852000,-788,728,16688,131,-297,-6
854000,-848,728,16596,91,-299,-21
856000,-768,752,16684,79,-318,2
858000,-828,704,16668,143,-297,16
860000,-804,696,16716,97,-293,-26
862004,-760,744,16688,104,-289,20
864000,-828,708,16596,153,-258,-38
866000,-836,724,16644,112,-298,-1
868000,-780,660,16656,122,-307,-36
870000,-856,720,16644,120,-272,16
872000,-792,756,16624,99,-279,-21
874000,-776,736,16660,147,-280,-17
876000,-784,720,16620,105,-331,0
878000,-748,756,16712,99,-280,-20
880000,-772,708,16616,130,-298,-33
882000,-836,664,16704,115,-304,-16
884000,-804,672,16696,91,-299,-15
886000,-808,664,16628,111,-280,-3
888000,-716,672,16692,153,-318,-21
890000,-832,644,16588,119,-303,-10
892000,-724,688,16596,109,-322,6
894000,-776,660,16720,119,-299,-29
896000,-832,712,16668,129,-271,-50
898000,-788,716,16624,125,-302,20
900000,-796,692,16604,92,-273,-20
902000,-776,680,16548,137,-288,-16
904000,-800,740,16616,110,-307,25
906000,-816,688,16676,102,-299,-1
908000,-812,692,16704,115,-282,-33
910000,-800,664,16672,150,-285,-37
912000,-840,772,16576,98,-316,15
914000,-860,732,16720,118,-286,-17
916000,-760,752,16700,139,-272,-11
918000,-732,720,16672,117,-327,7
920000,-760,708,16632,92,-267,-14
922000,-756,720,16600,152,-286,-10
924000,-752,744,16584,119,-307,-21
926000,-772,684,16680,118,-307,-26
928000,-796,752,16728,115,-266,-3
930000,-848,664,16664,131,-322,-40
932000,-764,684,16644,115,-320,9
934000,-744,772,16588,103,-282,7
936000,-824,712,16636,146,-322,7
938000,-848,720,16712,142,-287,-16
940004,-792,724,16624,102,-297,-21
942000,-776,764,16732,115,-280,-39
944000,-784,684,16624,116,-278,9
946000,-772,696,16660,134,-299,-36
948000,-852,740,16660,117,-272,-20
950000,-804,772,16644,129,-307,-13
952000,-812,696,16656,114,-284,-23
954000,-804,744,16660,115,-255,4
956000,-756,672,16552,143,-314,-30
958000,-752,700,16656,104,-284,-31
960000,-780,624,16616,104,-305,-23
962000,-788,688,16748,125,-340,-11
964000,-788,696,16616,148,-301,-34
966000,-768,736,16616,137,-259,-9
968000,-820,684,16564,110,-285,-6
970000,-800,676,16524,123,-285,-37
972000,-752,696,16620,69,-341,-3
974000,-712,724,16652,105,-286,-29
976000,-776,740,16624,79,-276,-17
978000,-836,692,16644,103,-286,0
980000,-768,804,16636,117,-270,-2
982000,-788,752,16664,133,-305,-43
984000,-852,748,16656,117,-273,-15
986000,-864,704,16628,102,-284,-31
988000,-788,704,16624,121,-286,-45
990004,-784,692,16584,128,-296,17
992000,-800,712,16652,89,-267,-32
994000,-772,736,16476,113,-298,4
996000,-772,692,16732,111,-304,-47
998000,-768,720,16700,126,-299,-1
1000000,-756,736,16572,104,-285,-15
1002000,-848,752,16724,67,-287,-18
1004000,-780,700,16624,142,-297,-37
1006000,-740,676,16556,127,-264,-13
1008000,-844,688,16692,98,-288,-21
1010000,-756,752,16668,110,-288,-11
1012000,-760,748,16652,129,-294,9
1014000,-812,728,16680,146,-320,-9
1016000,-788,620,16640,121,-278,-1
1018000,-812,672,16576,135,-260,5
1020000,-812,732,16672,112,-297,10
1022000,-760,760,16708,95,-294,-19
1024000,-752,700,16612,125,-293,-37
1026000,-840,708,16624,85,-273,-25
1028000,-788,656,16656,88,-309,-46
1030000,-724,704,16552,104,-318,-23
1032000,-796,780,16660,130,-271,-10
1034000,-784,680,16660,94,-289,-15
1036000,-792,680,16664,101,-309,0
1038000,-808,604,16668,86,-281,-37
1040000,-780,648,16672,97,-342,-12
1042000,-744,780,16652,117,-298,-18
1044000,-796,772,16600,126,-253,-19
1046000,-760,732,16612,121,-292,6
1048000,-816,712,16652,108,-294,-32
1050000,-764,688,16644,101,-281,-20
1052000,-796,684,16660,112,-275,-31
1054000,-768,728,16684,107,-295,-11
1056000,-848,744,16668,154,-286,-19
1058000,-816,796,16724,74,-269,-15
1060000,-776,700,16684,88,-284,-26
1062000,-792,696,16536,129,-312,-29
1064000,-748,724,16676,87,-259,-19
1066000,-788,772,16524,134,-292,2
1068000,-756,744,16696,112,-277,-21
1070000,-804,644,16680,120,-289,-24
1072000,-772,700,16676,123,-301,-49
1074000,-844,712,16720,157,-300,-14
1076000,-768,708,16720,94,-313,-14
1078000,-800,684,16704,114,-261,-27
1080000,-808,684,16576,129,-261,-33
1082000,-772,732,16628,114,-284,-28
1084004,-660,636,16624,105,-283,-21
1086000,-728,724,16660,134,-287,-1
1088000,-780,708,16612,125,-284,-21
1090000,-792,728,16664,117,-285,-14
1092000,-740,696,16580,134,-296,-22
1094000,-780,736,16692,107,-254,-13
1096000,-820,748,16656,100,-294,-19
1098000,-764,724,16680,150,-281,-24
1100000,-816,668,16640,108,-310,1
1102000,-784,752,16644,123,-303,-9
1104000,-760,648,16744,94,-304,6
1106000,-740,736,16772,140,-317,-31
1108000,-840,648,16660,129,-273,-28
1110000,-824,672,16632,97,-291,-33
1112000,-764,692,16668,118,-314,-41
1114000,-804,736,16644,89,-278,-15
1116000,-784,728,16620,152,-274,-3
1118000,-796,740,16732,84,-283,-63
1120004,-760,728,16552,112,-308,-15
1122000,-772,672,16748,114,-289,2
1124000,-820,748,16600,92,-309,-34
1126000,-764,652,16648,146,-306,-28
1128000,-812,716,16588,94,-288,-13
1130000,-792,716,16636,95,-287,-3
1132000,-764,760,16636,94,-291,-30
1134000,-816,688,16608,118,-281,-5
1136000,-820,752,16668,118,-285,-27
1138000,-744,728,16608,114,-281,-32
1140000,-804,696,16616,107,-298,-1
1142000,-776,732,16700,138,-305,-35
1144000,-756,668,16704,128,-318,-17
1146000,-792,696,16632,86,-291,-17
1148000,-792,692,16620,149,-306,-44
1150000,-772,824,16596,118,-315,-19
1152000,-812,712,16680,121,-305,-24
1154000,-740,704,16700,128,-297,-19
1156000,-836,720,16548,139,-321,-31
1158000,-796,684,16548,82,-281,-9
1160000,-748,732,16608,129,-307,-54
1162000,-796,676,16632,115,-303,-20
1164000,-764,752,16628,124,-309,9
1166000,-736,812,16684,106,-297,-3
1168000,-756,712,16640,100,-305,-1
1170000,-724,728,16748,150,-284,-58
1172000,-800,720,16608,136,-273,-2
1174000,-828,708,16624,134,-322,10
1176000,-740,772,16684,100,-268,-1
1178000,-800,660,16712,82,-289,-10
1180000,-776,688,16660,115,-272,-15
1182000,-736,700,16668,133,-295,24
1184000,-728,700,16752,119,-291,14
1186000,-788,688,16668,125,-312,-13
1188000,-776,684,16588,98,-321,-37
1190000,-824,684,16576,118,-310,-26
1192000,-816,692,16620,114,-320,-28
1194000,-788,688,16700,117,-283,-7
1196004,-748,724,16612,115,-300,-14
1198000,-756,736,16640,103,-286,19
1200000,-784,736,16552,121,-309,-2
1202000,-788,700,16608,108,-293,-25
1204000,-816,700,16660,106,-307,-9
1206000,-780,656,16628,106,-296,-19
1208000,-820,740,16572,117,-283,24
1210000,-780,740,16628,112,-284,14
1212000,-768,756,16728,134,-301,-36
1214000,-784,732,16660,109,-281,-17
1216000,-828,716,16572,106,-292,-2
1218000,-764,728,16636,105,-295,-37
1220000,-780,680,16648,121,-291,-42
1222000,-752,712,16708,134,-274,-24
1224000,-772,772,16608,112,-288,-34
1226000,-784,756,16660,122,-280,-28
1228000,-824,716,16580,111,-263,-1
1230000,-800,748,16612,80,-284,-25
1232000,-840,708,16600,99,-301,-42
1234000,-804,708,16620,129,-293,4
1236000,-764,740,16624,129,-306,-5
1238000,-844,780,16628,115,-293,-16
1240000,-852,624,16668,128,-309,-10
1242000,-796,776,16636,94,-264,-1
1244000,-764,716,16552,114,-293,-27
1246000,-748,728,16588,126,-299,-8
1248000,-824,684,16648,106,-291,-25
1250000,-856,708,16744,96,-306,-11
1252000,-832,712,16640,117,-300,-44
1254000,-816,708,16616,90,-270,14
1256000,-812,696,16708,118,-269,1
1258000,-804,796,16672,115,-299,-5
1260000,-764,768,16672,123,-297,-19
1262000,-840,748,16624,79,-311,-14
1264000,-796,712,16652,147,-315,-47
1266000,-836,740,16604,95,-287,-9
1268000,-824,696,16632,124,-272,-14
1270004,-780,724,16696,113,-303,-17
1272000,-756,732,16656,135,-302,-12
1274000,-736,712,16660,102,-292,-27
1276000,-796,716,16680,114,-318,-12
1278000,-816,668,16672,136,-281,-2
1280000,-784,676,16656,121,-293,-38
1282000,-788,716,16656,143,-329,-4
1284004,-792,788,16684,130,-290,-2
1286004,-732,676,16616,99,-285,-25
1288000,-788,708,16688,113,-282,-1
1290000,-828,632,16676,109,-303,-4
1292000,-712,680,16620,102,-297,2
1294000,-724,720,16656,132,-290,-9
1296000,-796,688,16648,139,-316,-13
1298000,-776,672,16756,109,-291,-26
1300000,-808,700,16608,122,-246,-25
1302000,-740,716,16732,96,-309,-19
1304000,-788,736,16624,117,-283,-6
1306000,-764,676,16560,99,-280,-11
1308000,-808,720,16644,120,-297,-7
1310000,-840,648,16676,108,-301,-15
1312000,-808,772,16652,118,-278,-3
1314000,-812,692,16732,131,-283,-6
1316000,-864,732,16664,113,-298,-16
1318000,-808,716,16676,96,-331,3
1320000,-804,652,16688,104,-284,-40
1322000,-844,700,16652,131,-284,-2
1324000,-808,692,16656,118,-282,-30
1326000,-812,696,16672,116,-300,-37
1328000,-800,724,16616,125,-303,13
1330000,-768,748,16700,126,-286,-19
1332000,-860,728,16620,90,-318,-25
1334000,-784,708,16744,161,-284,-54
1336000,-808,656,16632,132,-324,-11
1338000,-804,684,16516,100,-275,-43
1340004,-784,740,16624,90,-248,-34
1342000,-824,688,16696,125,-300,-27
1344000,-864,708,16612,95,-284,-46
1346000,-784,716,16604,105,-284,-22
1348000,-800,736,16724,94,-296,-7
1350000,-752,768,16704,100,-298,-34
1352000,-764,772,16660,140,-301,5
1354000,-828,768,16572,123,-254,-47
1356000,-784,764,16640,115,-295,11
1358000,-828,680,16696,94,-303,-10
1360000,-820,700,16620,123,-295,-34
1362000,-796,684,16616,131,-301,-39
1364000,-784,768,16740,137,-259,-37
1366000,-720,704,16756,149,-272,-11
1368000,-784,744,16660,108,-300,-28
1370000,-764,704,16684,127,-296,0
1372000,-856,744,16548,131,-293,-8
1374000,-784,780,16728,114,-309,-33
1376004,-824,720,16576,119,-301,10
1378000,-808,684,16708,116,-340,-34
1380000,-776,716,16652,113,-277,-30
1382000,-808,676,16660,98,-300,6
1384000,-836,708,16672,137,-291,9
1386000,-724,716,16656,91,-312,-8
1388000,-804,680,16640,95,-282,-46
1390000,-780,772,16616,110,-316,-37
1392000,-872,684,16648,106,-265,-5
1394000,-764,728,16624,108,-313,-26
1396000,-816,756,16676,113,-261,-35
1398000,-788,708,16660,90,-290,-21
1400000,-752,740,16656,104,-295,17
1402000,-804,708,16720,106,-306,-50
1404000,-760,688,16632,144,-275,-11
1406000,-788,720,16728,98,-268,-17
1408000,-772,768,16544,124,-284,-14
1410000,-804,740,16660,123,-306,-18
1412000,-780,748,16604,106,-257,-23
1414000,-812,756,16648,127,-296,1
1416000,-824,708,16692,111,-306,3
1418000,-756,700,16712,134,-275,-27
1420000,-756,712,16732,141,-281,-11
1422000,-864,760,16628,112,-304,-12
1424000,-780,736,16684,178,-318,-31
1426000,-844,784,16704,83,-300,1
1428000,-776,744,16608,144,-302,-39
1430000,-796,736,16620,119,-324,-21
1432000,-780,708,16720,109,-309,-53
1434000,-852,720,16664,120,-300,-19
1436000,-856,736,16624,123,-307,-11
1438000,-768,748,16640,101,-294,-8
1440000,-748,716,16696,107,-286,-28
1442000,-720,724,16604,127,-262,-37
1444000,-804,704,16656,145,-281,0
1446000,-844,716,16628,137,-290,-46
1448000,-768,664,16692,116,-289,-16
1450000,-760,712,16584,93,-306,-32
1452004,-792,768,16756,106,-339,-17
1454000,-784,736,16660,123,-294,-10
1456000,-824,748,16724,113,-276,-5
1458000,-840,712,16708,90,-305,-51
1460000,-864,696,16608,133,-289,-9
1462000,-804,744,16668,109,-275,-4
1464000,-808,720,16752,138,-288,-39
1466000,-776,776,16724,109,-316,-27
1468000,-848,708,16660,136,-291,-18
1470000,-788,740,16600,94,-272,-18
1472000,-796,716,16744,103,-304,-11
1474000,-712,756,16708,104,-287,-5
1476000,-812,712,16652,137,-310,-27
1478000,-784,652,16620,110,-301,-15
1480000,-760,716,16720,130,-283,18
1482000,-796,740,16716,128,-286,9
1484000,-832,696,16696,109,-296,-4
1486000,-844,696,16688,112,-288,-22
1488000,-844,680,16620,107,-273,-24
1490000,-764,764,16812,127,-303,-4
1492000,-792,816,16704,112,-297,-35
1494000,-764,716,16672,46,-299,4
1496000,-824,656,16648,116,-321,2
1498000,-848,704,16648,127,-234,-6
1500000,-796,764,16656,102,-281,-22
1502004,-816,692,16564,116,-294,-7
1504000,-792,724,16636,97,-281,-31
1506000,-812,760,16700,130,-310,-7
1508000,-896,708,16572,84,-282,-22
1510000,-800,740,16628,106,-290,-7
1512000,-844,736,16716,144,-299,-10
1514004,-776,700,16636,144,-269,-5
1516000,-840,772,16716,106,-280,-3
1518000,-744,720,16696,147,-282,-25
1520000,-816,736,16744,81,-293,-5
1522000,-764,708,16636,123,-298,-19
1524000,-748,684,16712,118,-311,-50
1526000,-764,720,16720,135,-289,-33
1528000,-852,632,16600,123,-277,-8
1530000,-748,688,16600,119,-318,-61
1532000,-768,724,16664,131,-279,-17
1534000,-740,632,16552,155,-266,-16
1536000,-824,708,16676,118,-300,-20
1538000,-788,692,16752,119,-277,1
1540000,-784,684,16564,88,-315,-2
1542000,-744,732,16580,137,-300,-54
1544000,-764,708,16636,113,-268,10
1546000,-820,680,16648,109,-294,-15
1548004,-796,744,16660,92,-280,5
1550000,-776,740,16692,89,-302,9
1552004,-784,688,16636,134,-320,-18
1554000,-740,692,16744,126,-310,-13
1556000,-720,704,16576,112,-286,-44
1558000,-836,656,16744,110,-285,-17
1560000,-836,708,16708,110,-271,-8
1562000,-700,676,16636,127,-302,23
1564000,-812,688,16668,128,-310,-31
1566000,-764,728,16684,112,-301,-9
1568000,-812,732,16700,96,-285,-2
1570000,-780,756,16672,113,-308,-16
1572000,-808,736,16712,129,-262,21
1574000,-816,716,16684,123,-298,-59
1576000,-788,648,16632,147,-316,-16
1578000,-848,720,16640,134,-298,-45
1580004,-804,740,16640,103,-265,-32
1582000,-736,668,16612,93,-315,-12
1584000,-828,776,16652,128,-292,-15
1586000,-740,696,16680,133,-315,-26
1588000,-748,692,16664,128,-264,-8
1590000,-780,716,16708,88,-311,-18
1592000,-740,708,16684,118,-324,-48
1594000,-752,740,16584,106,-273,12
1596000,-800,696,16600,106,-315,-31
1598000,-768,752,16628,128,-282,2
1600000,-856,708,16664,99,-274,-15
1602000,-824,704,16656,114,-297,-20
1604000,-772,732,16516,113,-299,-41
1606000,-872,720,16560,156,-311,-34
1608000,-840,720,16676,99,-284,-45
1610000,-792,740,16664,86,-286,-5
1612000,-740,740,16724,122,-283,-9
1614000,-808,680,16584,91,-290,-29
1616000,-812,696,16528,90,-284,-37
1618000,-752,760,16720,147,-277,-18
1620000,-776,704,16728,111,-257,-9
1622000,-844,744,16680,116,-265,-12
1624000,-780,700,16772,116,-303,-7
1626000,-752,704,16560,118,-299,-3
1628000,-800,772,16648,122,-272,-32
1630000,-748,796,16636,130,-285,4
1632000,-704,728,16596,127,-296,-30
1634000,-812,784,16520,106,-294,-24
1636004,-816,768,16592,103,-266,-16
1638000,-732,736,16692,110,-303,-27
1640000,-712,772,16620,125,-331,-25
1642004,-780,700,16572,120,-289,-36
1644000,-852,748,16648,96,-289,-8
1646000,-760,720,16568,122,-273,-6
1648000,-788,732,16672,91,-307,-9
1650000,-752,716,16688,111,-312,-7
1652000,-752,684,16624,139,-307,-6
1654000,-804,752,16712,116,-300,-38
1656000,-852,708,16624,97,-299,-15
1658000,-752,688,16640,90,-298,13
1660000,-752,684,16640,128,-308,-28
1662000,-800,688,16668,101,-305,-6
1664000,-808,736,16708,129,-297,-1
1666000,-784,772,16736,130,-287,-12
1668000,-728,700,16792,102,-301,8
1670000,-768,688,16684,129,-260,-43
1672000,-820,712,16580,152,-308,-36
1674000,-764,696,16608,119,-313,-12
1676000,-860,688,16620,117,-292,-23
1678000,-792,760,16596,136,-288,1
1680004,-788,664,16672,99,-283,-26
1682000,-812,756,16636,112,-270,-11
1684000,-804,684,16612,131,-310,6
1686000,-856,696,16648,48,-313,-16
1688000,-856,748,16740,105,-297,-45
1690000,-808,716,16704,111,-281,-36
1692000,-780,708,16720,119,-290,-3
1694000,-784,636,16676,125,-284,-27
1696000,-804,772,16708,107,-290,-43
1698000,-812,784,16640,121,-279,-18
1700000,-740,680,16596,97,-283,-30
1702000,-856,688,16612,128,-293,12
1704000,-804,696,16692,121,-292,13
1706000,-796,708,16620,90,-294,-29
1708000,-796,748,16556,136,-282,-9
1710000,-712,652,16668,93,-297,-19
1712000,-784,736,16536,127,-258,-25
1714000,-744,708,16604,94,-307,-13
1716000,-796,764,16692,115,-303,-18
1718000,-716,744,16756,106,-269,-14
1720000,-820,692,16560,90,-309,33
1722000,-808,724,16660,110,-300,-13
1724004,-736,704,16560,106,-297,-10
1726000,-856,744,16652,118,-298,-22
1728000,-804,760,16760,122,-258,-36
1730000,-764,696,16572,85,-312,-3
1732000,-716,728,16704,124,-282,-22
1734000,-816,684,16700,87,-283,-1
1736000,-736,692,16696,132,-278,-29
1738000,-852,704,16664,111,-265,-35
1740000,-840,720,16604,126,-303,-29
1742000,-776,752,16632,117,-297,-32
1744000,-792,640,16580,106,-280,-17
1746000,-740,752,16616,109,-273,-28
1748000,-828,708,16648,114,-309,9
1750000,-804,728,16628,99,-291,-8
1752000,-732,708,16584,135,-308,3
1754000,-776,756,16528,142,-293,-34
1756000,-712,700,16616,117,-278,-1
1758000,-732,764,16668,128,-291,-4
1760000,-868,688,16612,98,-350,-31
1762000,-800,704,16724,125,-306,-34
1764004,-744,716,16708,118,-291,-5
1766000,-752,668,16564,138,-283,-8
1768000,-800,724,16636,117,-283,-6
1770004,-776,740,16684,108,-279,-8
1772000,-744,688,16632,125,-271,-31
1774000,-796,684,16636,108,-307,-10
1776000,-784,688,16652,125,-275,-13
1778000,-840,696,16628,119,-316,-11
1780000,-800,784,16680,122,-276,-51
1782000,-764,732,16580,102,-308,-22
1784000,-772,780,16624,80,-328,-20
1786000,-832,760,16716,133,-296,-18
1788000,-896,680,16748,107,-282,-12
1790000,-780,764,16620,121,-317,-4
1792000,-752,680,16732,115,-287,-7
1794000,-820,712,16752,90,-277,-15
1796000,-800,700,16612,77,-295,-4
1798000,-932,748,16648,115,-293,0
1800000,-848,744,16608,104,-293,-57
1802000,-816,700,16580,97,-294,-32
1804000,-796,692,16740,112,-278,-10
1806000,-828,744,16700,109,-288,-3
1808000,-752,692,16636,116,-264,-16
1810000,-832,728,16636,110,-301,8
1812000,-828,736,16624,93,-289,-32
1814000,-808,776,16620,99,-303,-28
1816000,-776,704,16532,111,-287,10
1818000,-764,716,16576,109,-291,-19
1820000,-776,760,16616,130,-295,-27
1822000,-724,728,16672,89,-310,-5
1824000,-796,700,16660,96,-313,-11
1826000,-780,744,16556,119,-273,-1
1828000,-764,688,16608,127,-317,-25
1830000,-760,696,16672,83,-312,-30
1832000,-760,728,16620,108,-282,8
1834000,-808,764,16620,112,-292,-13
1836000,-784,680,16740,82,-295,5
1838000,-792,688,16640,116,-260,-18
1840000,-800,700,16684,115,-263,-46
1842000,-780,712,16684,132,-299,-32
1844000,-832,672,16720,85,-291,-19
1846000,-848,720,16744,101,-295,-18
1848000,-744,740,16628,132,-278,7
1850000,-764,676,16668,96,-294,-1
1852000,-828,684,16648,112,-329,-19
1854000,-776,716,16672,88,-295,-17
1856000,-712,768,16584,117,-272,-14
1858000,-732,748,16636,106,-278,-18
1860000,-772,672,16624,109,-286,-31
1862000,-784,740,16596,116,-304,-26
1864000,-800,708,16620,111,-297,-11
1866000,-756,728,16600,102,-289,-26
1868000,-808,720,16680,110,-292,-12
1870000,-772,776,16708,101,-330,-4
1872004,-768,740,16680,113,-300,-2
1874000,-784,740,16672,127,-288,-18
1876000,-844,728,16752,135,-267,-32
1878000,-780,760,16592,104,-320,-29
1880000,-764,672,16700,127,-290,-30
1882000,-808,736,16680,103,-293,-36
1884000,-744,780,16648,119,-299,-33
1886000,-752,716,16716,113,-293,11
1888000,-788,720,16660,108,-269,-20
1890000,-736,724,16564,120,-304,-11
1892004,-764,740,16552,114,-319,-8
1894000,-752,652,16636,101,-310,-14
1896000,-800,688,16624,136,-296,-33
1898004,-800,664,16688,115,-324,-13
1900000,-780,700,16648,70,-283,-29
1902000,-800,668,16536,131,-267,-27
1904000,-788,712,16788,136,-330,-61
1906000,-836,756,16708,100,-291,-28
1908000,-764,768,16692,102,-275,10
1910000,-756,796,16596,129,-292,-23
1912000,-740,732,16684,103,-306,-14
1914000,-712,712,16644,112,-296,-6
1916000,-768,704,16720,122,-305,-31
1918000,-784,640,16572,117,-309,-48
1920000,-720,732,16608,106,-279,-15
1922000,-820,716,16644,84,-269,-9
1924000,-736,740,16680,114,-300,-31
1926000,-832,788,16696,105,-294,0
1928000,-756,744,16640,129,-296,8
1930000,-820,752,16532,116,-313,17
1932000,-804,744,16684,111,-280,-27
1934000,-776,800,16520,123,-296,27
1936000,-784,744,16684,114,-293,-7
1938000,-812,716,16656,109,-299,-17
1940000,-844,672,16552,120,-284,-8
1942000,-852,756,16644,121,-260,-31
1944000,-796,696,16512,105,-300,-6
1946000,-788,644,16648,111,-290,-8
1948000,-836,672,16748,98,-300,-4
1950000,-808,756,16632,96,-298,-25
1952000,-724,696,16636,107,-301,5
1954000,-716,708,16564,121,-286,-18
1956000,-836,692,16680,109,-294,-34
1958000,-784,684,16672,123,-279,-12
1960000,-764,740,16572,89,-295,-3
1962000,-784,724,16668,121,-299,-2
1964004,-776,744,16696,143,-278,-37
1966000,-812,704,16500,141,-319,-19
1968000,-792,728,16612,94,-299,-7
1970000,-736,708,16628,107,-293,-28
1972000,-832,724,16712,65,-306,-31
1974000,-784,640,16696,124,-288,-10
1976000,-732,756,16736,108,-270,28
1978000,-788,720,16652,75,-282,-7
1980000,-752,744,16608,104,-295,-25
1982000,-780,720,16660,128,-296,14
1984000,-740,700,16640,117,-300,-4
1986000,-792,760,16632,101,-279,-13
1988000,-932,696,16636,91,-287,-9
1990000,-788,740,16648,110,-275,-13
1992000,-796,688,16652,133,-321,-30
1994000,-748,748,16576,138,-287,-27
1996000,-752,704,16612,136,-291,-8
1998000,-784,720,16616,120,-308,2
2000000,-820,816,16672,84,-328,-17
2002000,-780,796,16636,104,-305,-35
2004000,-764,688,16680,139,-298,-16
2006000,-724,708,16620,104,-342,-11
2008000,-740,688,16668,113,-271,-23
2010000,-828,692,16684,111,-283,-25
2012000,-808,680,16584,131,-284,-14
2014000,-772,668,16676,94,-298,-29
2016000,-720,724,16624,110,-298,-9
2018000,-784,788,16644,104,-294,-41
2020000,-812,760,16708,144,-276,-40
2022000,-792,712,16624,127,-273,-21
2024000,-772,704,16704,125,-315,-10
2026000,-784,744,16656,148,-298,-23
2028000,-776,736,16616,133,-289,-21
2030000,-796,748,16576,91,-285,-33
2032000,-780,728,16736,112,-283,-12
2034000,-836,708,16656,118,-291,-19
2036000,-812,704,16576,64,-271,-28
2038004,-760,676,16636,116,-309,-27
2040000,-792,788,16676,126,-287,21
2042000,-824,696,16660,134,-257,-8
2044000,-724,736,16620,80,-304,-35
2046000,-816,772,16672,108,-294,-26
2048000,-868,720,16708,129,-298,-29
2050000,-840,692,16624,115,-298,-2
2052004,-760,648,16736,106,-302,-5
2054000,-776,800,16696,120,-297,3
2056000,-792,740,16776,115,-257,-52
2058000,-748,756,16676,88,-338,-16
2060004,-808,700,16756,119,-307,-37
2062000,-792,716,16664,80,-280,-11
2064000,-804,728,16596,102,-271,-4
2066000,-816,728,16596,101,-302,3
2068000,-828,716,16684,79,-310,-28
2070000,-768,716,16616,90,-280,-16
2072000,-740,692,16608,109,-297,-31
2074000,-800,740,16744,104,-276,-3
2076000,-800,752,16676,126,-267,-26
2078000,-840,704,16744,110,-315,-6
2080000,-808,708,16664,125,-291,-20
2082000,-728,756,16624,118,-319,-25
2084000,-780,728,16668,104,-302,-5
2086000,-848,676,16640,86,-298,-20
2088000,-708,704,16612,110,-284,-9
2090000,-792,712,16560,106,-265,-18
2092004,-824,628,16680,117,-284,-71
2094000,-820,704,16648,130,-308,-27
2096000,-816,696,16664,126,-308,-31
2098000,-772,672,16664,100,-289,-10
2100000,-824,700,16756,114,-297,8
2102000,-784,692,16632,118,-240,-10
2104000,-796,696,16768,111,-265,-18
2106000,-804,684,16712,108,-283,4
2108000,-784,728,16556,95,-309,-2
2110000,-796,712,16632,96,-296,-6
2112000,-800,700,16560,125,-266,-25
2114000,-804,700,16616,108,-311,-44
2116000,-808,676,16512,111,-292,-27
2118000,-756,712,16564,99,-269,-40
2120000,-808,660,16728,100,-264,-16
2122000,-800,672,16672,116,-295,-2
2124000,-792,760,16632,99,-299,-23
2126000,-800,712,16656,69,-278,-33
2128000,-796,752,16664,116,-284,-17
2130000,-788,644,16696,103,-298,-55
2132000,-784,648,16708,76,-294,-22
2134000,-804,668,16684,108,-298,-19
2136000,-840,720,16656,131,-292,-28
2138000,-828,680,16688,133,-267,-17
2140000,-772,788,16596,106,-296,-32
2142004,-784,688,16744,90,-275,-47
2144000,-812,660,16604,137,-303,-38
2146000,-808,736,16616,101,-293,-35
2148000,-772,720,16628,119,-282,-29
2150000,-748,696,16668,116,-294,-30
2152000,-800,724,16692,117,-280,-11
2154004,-772,780,16688,114,-283,-26
2156000,-780,724,16680,125,-324,-10
2158000,-792,744,16736,106,-306,1
2160000,-800,676,16604,142,-295,-6
2162000,-788,692,16644,106,-280,-19
2164000,-756,732,16688,115,-274,-25
2166004,-776,708,16640,104,-277,-43
2168000,-796,700,16584,109,-276,-30
2170000,-808,744,16656,113,-304,14
2172000,-760,772,16700,143,-250,-28
2174000,-800,644,16580,137,-319,19
2176000,-836,716,16532,101,-310,-2
2178000,-772,708,16616,115,-293,-22
2180000,-748,728,16688,105,-290,-9
2182000,-760,756,16724,122,-295,0
2184000,-776,728,16640,101,-298,-39
2186000,-784,704,16620,111,-295,-19
2188000,-808,752,16652,118,-277,6
2190000,-808,744,16552,137,-315,7
2192000,-792,712,16652,107,-315,-32
2194000,-844,680,16660,94,-290,-12
2196000,-844,716,16664,130,-299,-5
2198000,-784,732,16696,93,-300,-58
2200000,-748,700,16640,114,-297,-26
2202000,-684,720,16616,112,-296,-50
2204000,-836,720,16692,106,-278,-13
2206000,-760,688,16612,115,-291,-22
2208000,-736,700,16644,106,-298,0
2210000,-820,720,16716,99,-323,-56
2212000,-788,712,16664,117,-319,-38
2214000,-844,712,16712,122,-295,-8
2216000,-816,652,16668,104,-287,1
2218000,-832,776,16668,106,-298,-15
2220000,-864,712,16660,100,-291,5
2222000,-804,716,16612,149,-277,-9
2224000,-800,796,16640,110,-307,-35
2226000,-844,740,16648,84,-313,-23
2228000,-808,688,16668,80,-263,6
2230000,-800,736,16668,124,-273,-9
2232000,-796,640,16504,100,-289,-41
2234000,-744,680,16584,107,-289,-5
2236000,-800,760,16552,109,-257,-8
2238000,-792,652,16620,120,-315,-14
2240000,-836,708,16668,90,-290,-27
2242000,-788,716,16652,128,-284,2
2244000,-760,664,16756,128,-290,-19
2246000,-776,712,16636,141,-311,-11
2248000,-844,720,16652,97,-305,-3
2250000,-808,700,16668,158,-283,-25
2252000,-860,768,16680,114,-302,-2
2254000,-752,648,16696,102,-257,-18
2256000,-804,684,16660,110,-295,-55
2258000,-796,708,16596,142,-308,0
2260000,-768,796,16640,120,-279,-4
2262000,-732,788,16680,124,-266,-18
2264000,-840,740,16688,114,-313,-24
2266000,-828,744,16576,139,-275,-4
2268000,-848,744,16656,115,-282,-42
2270000,-772,740,16656,112,-323,-14
2272000,-784,732,16668,135,-326,-11
2274000,-772,760,16696,117,-288,-14
2276000,-760,732,16624,162,-314,-6
2278000,-812,788,16692,78,-263,-48
2280000,-792,720,16576,107,-309,-43
2282000,-820,712,16588,129,-288,-34
2284000,-796,704,16760,113,-274,-12
2286000,-812,724,16544,114,-285,-5
2288000,-760,688,16604,91,-280,0
2290000,-832,664,16664,96,-294,-18
2292000,-720,672,16724,120,-302,-24
2294000,-780,716,16636,150,-283,-45
2296000,-736,716,16604,110,-265,-35
2298000,-720,716,16724,121,-282,0
2300000,-820,684,16668,113,-268,-11
2302000,-772,728,16724,111,-294,17
2304000,-804,732,16588,105,-299,-41
2306000,-764,784,16708,134,-306,6
2308000,-768,752,16668,151,-277,2
2310000,-804,724,16564,97,-309,-21
2312000,-868,792,16856,93,-312,-8
2314000,-764,728,16584,114,-297,-14
2316000,-776,696,16556,77,-276,-15
2318000,-788,712,16720,118,-289,-10
2320000,-800,664,16588,93,-279,3
2322000,-748,704,16512,100,-274,2
2324000,-776,712,16632,145,-280,-17
2326000,-748,684,16716,88,-266,-49
2328000,-776,688,16660,131,-300,-14
2330000,-808,760,16584,105,-307,-22
2332000,-736,720,16652,99,-297,-9
2334000,-736,724,16624,140,-302,-43
2336000,-784,752,16736,140,-282,-28
2338000,-788,796,16744,129,-309,6
2340000,-780,756,16660,92,-271,-27
2342000,-780,700,16612,119,-283,20
2344000,-840,720,16568,117,-281,4
2346000,-832,708,16684,106,-288,-10
2348000,-784,684,16536,177,-273,-52
2350000,-820,716,16668,81,-314,-21
2352000,-852,676,16748,104,-304,3
2354000,-768,696,16672,114,-286,-6
2356000,-776,776,16592,113,-312,-12
2358000,-864,716,16632,99,-288,22
2360000,-800,752,16700,127,-274,-18
2362000,-708,732,16532,111,-283,-21
2364000,-796,652,16580,125,-305,-16
2366000,-916,668,16636,99,-303,-17
2368000,-744,664,16552,118,-280,-23
2370000,-832,724,16752,127,-291,-29
2372000,-744,656,16696,141,-279,-20
2374000,-744,724,16580,109,-310,-34
2376000,-796,752,16604,141,-251,-21
2378000,-780,748,16700,118,-287,-17
2380000,-772,732,16648,136,-300,-21
2382000,-720,760,16716,107,-289,-50
2384000,-796,696,16620,91,-302,8
2386000,-776,760,16732,79,-297,-19
2388000,-816,676,16628,110,-311,-21
2390000,-792,736,16552,110,-277,-22
2392000,-776,724,16740,123,-269,24
2394000,-808,732,16676,108,-306,-9
2396000,-776,776,16764,111,-296,8
2398004,-824,720,16636,135,-301,9
2400000,-760,704,16604,104,-290,-7
2402000,-768,760,16580,117,-287,-31
2404000,-772,716,16648,86,-303,-7
2406000,-796,712,16668,99,-313,-48
2408000,-796,640,16648,133,-279,4
2410004,-696,712,16744,139,-294,-10
2412000,-800,736,16640,127,-279,-55
2414000,-780,672,16708,77,-283,4
2416000,-788,712,16728,134,-291,15
2418004,-756,648,16548,126,-319,-36
2420000,-800,792,16596,117,-320,-7
2422000,-816,716,16680,126,-253,-23
2424000,-828,700,16588,128,-291,-4
2426000,-836,756,16684,123,-321,-31
2428000,-836,744,16644,111,-293,-22
2430000,-764,720,16700,134,-313,-49
2432000,-756,764,16612,123,-263,-2
2434000,-836,716,16636,108,-293,-9
2436000,-816,688,16684,134,-316,5
2438000,-792,716,16728,117,-286,-33
2440000,-776,684,16524,97,-297,-39
2442000,-784,712,16692,85,-281,-21
2444004,-840,700,16552,125,-292,-23
2446000,-816,740,16644,97,-267,-14
2448000,-792,748,16712,127,-313,-30
2450000,-840,632,16624,132,-316,-7
2452000,-852,692,16624,140,-287,1
2454000,-800,716,16748,100,-271,-8
2456000,-856,760,16572,93,-306,-15
2458000,-780,704,16668,105,-276,-17
2460000,-792,740,16668,125,-288,-27
2462000,-800,700,16572,109,-301,-13
2464000,-696,708,16632,130,-311,-45
2466000,-816,708,16624,136,-299,-1
2468000,-800,800,16624,108,-284,7
2470000,-788,748,16696,121,-251,14
2472000,-796,740,16600,107,-311,2
2474000,-808,668,16596,127,-287,-27
2476000,-740,676,16640,104,-293,-25
2478000,-768,720,16624,88,-291,-17
2480000,-764,748,16584,147,-286,8
2482000,-844,740,16608,114,-306,-8
2484000,-828,720,16740,106,-298,-33
2486000,-716,720,16592,114,-273,6
2488000,-784,764,16752,130,-256,8
2490000,-776,764,16688,125,-315,-35
2492000,-784,740,16648,132,-290,-23
2494000,-796,716,16552,125,-292,-20
2496000,-808,712,16700,114,-267,-22
2498000,-756,700,16676,90,-302,-19
2500000,-728,732,16592,128,-284,5
2502000,-824,748,16596,128,-293,-38
2504000,-836,756,16644,119,-307,11
2506000,-772,696,16636,125,-292,7
2508000,-796,704,16660,133,-300,-5
2510000,-824,748,16652,118,-294,-8
2512000,-844,712,16596,106,-260,-6
2514000,-704,728,16660,112,-306,7
2516000,-792,748,16536,82,-301,-23
2518000,-752,736,16720,143,-274,-42
2520000,-720,744,16712,132,-319,2
2522000,-800,784,16600,128,-255,-33
2524000,-804,732,16632,117,-278,2
2526000,-760,656,16620,141,-281,-23
2528000,-768,712,16728,74,-292,-16
2530000,-792,700,16580,124,-290,-22
2532004,-760,744,16692,130,-296,-13
2534000,-840,680,16640,135,-251,-6
2536000,-828,760,16632,106,-278,-5
2538004,-800,752,16636,108,-280,-1
2540000,-804,728,16612,128,-294,-33
2542000,-712,760,16628,85,-293,-39
2544000,-732,704,16616,117,-293,-37
2546000,-828,744,16632,148,-309,9
2548000,-760,652,16664,113,-285,-33
2550000,-820,808,16632,110,-274,5
2552000,-760,728,16620,94,-281,-6
2554000,-812,748,16616,126,-305,-42
2556000,-856,728,16628,83,-303,-15
2558000,-836,732,16624,93,-266,-34
2560000,-820,728,16664,120,-310,-30
2562000,-772,716,16740,102,-274,-29
2564000,-820,724,16704,120,-320,-16
2566000,-804,736,16592,162,-279,-5
2568000,-768,796,16588,115,-269,-24
2570000,-752,752,16664,94,-277,-38
2572000,-752,688,16672,123,-298,-17
2574000,-720,752,16620,84,-328,-33
2576000,-804,792,16604,116,-294,-9
2578000,-724,776,16716,117,-307,-1
2580000,-848,672,16724,127,-299,-16
2582000,-712,800,16676,123,-316,-9
2584000,-780,744,16608,108,-263,-15
2586000,-792,704,16636,119,-275,-27
2588000,-780,704,16708,108,-288,2
2590000,-804,740,16700,143,-270,6
2592000,-748,772,16656,104,-263,-14
2594000,-776,772,16680,93,-309,-41
2596000,-792,764,16660,137,-292,-5
2598000,-784,716,16576,137,-243,-6
2600000,-780,684,16616,119,-274,-19
2602000,-812,764,16636,130,-308,-13
2604000,-820,672,16580,105,-322,-9
2606000,-828,740,16660,105,-304,-11
2608000,-804,704,16676,91,-289,1
2610000,-760,704,16652,135,-277,34
2612000,-808,664,16624,116,-302,-7
2614000,-828,732,16760,91,-296,11
2616000,-804,724,16616,104,-314,-36
2618000,-764,728,16700,132,-303,-3
2620000,-764,708,16672,99,-277,-31
2622000,-836,768,16580,109,-293,-5
2624000,-872,768,16524,108,-303,10
2626000,-768,712,16688,108,-269,-5
2628000,-800,764,16628,104,-282,-10
2630000,-772,684,16584,140,-321,-40
2632000,-800,732,16620,123,-317,-35
2634000,-812,800,16636,115,-295,-5
2636000,-812,728,16728,140,-256,-9
2638000,-832,752,16696,113,-272,-5
2640000,-804,808,16572,124,-320,-2
2642000,-768,724,16740,110,-304,22
2644000,-824,732,16648,90,-300,21
2646000,-800,724,16608,110,-291,-35
2648000,-828,704,16716,149,-300,-30
2650000,-780,716,16688,125,-293,-22
2652000,-764,656,16600,139,-299,-20
2654004,-796,688,16648,107,-304,-36
2656000,-768,716,16520,86,-290,2
2658000,-804,688,16592,107,-296,-25
2660000,-768,680,16536,144,-312,16
2662000,-844,756,16628,110,-291,-3
2664000,-828,724,16620,108,-292,-27
2666000,-772,752,16576,130,-278,-23
2668000,-848,700,16688,111,-301,19
2670000,-728,732,16616,114,-291,-3
2672000,-800,716,16672,91,-305,-23
2674000,-812,644,16656,105,-282,-6
2676000,-840,696,16596,121,-299,-15
2678004,-812,740,16672,113,-306,-19
2680000,-788,668,16680,114,-261,-1
2682000,-728,744,16692,103,-262,-46
2684000,-824,768,16628,104,-317,-27
2686000,-776,728,16608,104,-310,4
2688000,-776,696,16708,101,-299,7
2690000,-772,716,16720,108,-311,22
2692004,-776,672,16660,136,-302,-12
2694004,-816,760,16692,103,-311,-60
2696000,-808,740,16712,106,-304,2
2698000,-784,744,16632,144,-306,7
2700000,-748,688,16728,115,-292,-1
2702000,-856,688,16548,98,-294,-13
2704000,-812,672,16668,147,-308,-11
2706000,-848,736,16656,130,-313,-35
2708000,-808,696,16632,126,-313,-22
2710000,-776,700,16620,119,-320,3
2712000,-792,744,16584,108,-271,13
2714000,-768,692,16676,106,-331,-26
2716000,-856,744,16688,91,-317,-10
2718000,-768,712,16580,120,-292,-23
2720000,-776,760,16536,97,-263,-9
2722000,-812,732,16660,136,-292,-30
2724000,-768,716,16656,103,-279,6
2726000,-772,712,16628,110,-275,-14
2728004,-796,628,16628,102,-290,1
2730000,-784,720,16632,83,-332,-12
2732000,-812,764,16636,106,-300,-13
2734000,-844,680,16684,98,-311,-20
2736000,-816,704,16740,86,-261,-24
2738000,-812,716,16748,150,-296,2
2740000,-792,748,16596,118,-308,-14
2742000,-740,676,16700,95,-280,-18
2744000,-820,736,16592,87,-263,-18
2746000,-720,772,16564,158,-285,-12
2748000,-744,728,16760,82,-282,-17
2750000,-744,760,16632,104,-325,-4
2752000,-740,736,16572,119,-279,-24
2754000,-828,796,16748,97,-280,-23
2756000,-784,724,16604,151,-280,4
2758000,-764,732,16724,98,-295,-22
2760000,-792,712,16648,116,-304,-33
2762000,-772,712,16624,99,-300,-16
2764000,-860,768,16764,147,-264,-5
2766000,-748,740,16688,115,-268,-8
2768004,-800,712,16576,115,-287,-14
2770000,-804,700,16756,108,-292,-26
2772000,-772,692,16864,127,-265,-29
2774000,-716,772,16728,101,-291,-4
2776000,-796,708,16572,131,-295,-7
2778000,-728,696,16680,121,-294,-16
2780000,-824,676,16728,121,-275,-17
2782000,-840,672,16632,99,-324,-22
2784000,-756,712,16636,108,-290,-9
2786000,-828,704,16632,135,-330,-22
2788004,-784,748,16688,136,-298,-11
2790000,-860,756,16744,144,-309,-1
2792000,-740,692,16712,110,-280,-14
2794004,-804,712,16688,124,-292,4
2796000,-780,720,16516,140,-287,3
2798000,-784,728,16732,114,-279,-8
2800000,-804,712,16716,99,-256,10
2802000,-852,756,16660,115,-310,-13
2804000,-772,776,16576,81,-264,-48
2806000,-732,716,16656,111,-291,-36
2808000,-768,692,16712,131,-296,-11
2810000,-764,744,16684,113,-320,-19
2812000,-820,760,16604,130,-274,-5
2814000,-716,732,16772,113,-276,-18
2816000,-772,688,16636,128,-265,-9
2818000,-832,756,16640,105,-328,-46
2820000,-792,780,16584,116,-321,-11
2822000,-772,784,16660,110,-318,16
2824000,-736,696,16660,143,-299,6
2826000,-844,672,16596,128,-301,11
2828000,-744,820,16644,108,-308,-35
2830000,-784,764,16648,111,-284,2
2832000,-740,708,16640,106,-295,0
2834000,-808,800,16628,142,-307,-3
2836000,-764,728,16592,106,-304,-22
2838000,-864,728,16652,118,-287,-12
2840000,-812,720,16656,136,-288,5
2842000,-788,696,16684,117,-265,15
2844000,-812,728,16708,113,-317,-2
2846000,-796,748,16668,122,-278,-23
2848000,-800,660,16688,136,-329,-14
2850000,-772,736,16632,96,-295,-11
2852000,-768,752,16604,143,-296,-36
2854000,-864,724,16636,120,-296,-15
2856000,-752,660,16740,121,-306,-33
2858000,-752,712,16580,127,-301,-12
2860000,-748,720,16544,109,-285,-10
2862000,-828,704,16704,93,-311,-26
2864000,-780,680,16660,122,-315,-17
2866000,-756,692,16676,132,-307,-57
2868000,-784,704,16620,98,-291,-18
2870000,-784,708,16560,142,-273,-3
2872000,-812,760,16588,113,-314,-27
2874000,-740,816,16624,74,-350,-22
2876000,-740,752,16728,116,-277,-46
2878000,-836,760,16712,82,-321,-32
2880000,-752,760,16628,123,-289,12
2882000,-776,768,16696,127,-291,-5
2884000,-836,704,16632,107,-301,-19
2886000,-796,784,16568,99,-294,-38
2888000,-812,732,16592,135,-279,-34
2890000,-760,752,16624,105,-335,-23
2892000,-776,784,16712,129,-254,-15
2894000,-856,684,16756,126,-317,-8
2896004,-740,696,16672,123,-336,-19
2898000,-780,780,16568,85,-308,-14
2900000,-828,668,16620,122,-283,19
2902000,-792,688,16584,138,-264,-15
2904000,-836,776,16620,131,-299,-16
2906000,-736,704,16588,107,-306,-32
2908000,-840,728,16648,103,-311,-20
2910000,-724,760,16608,137,-284,-13
2912000,-772,692,16600,136,-300,-6
2914000,-776,764,16676,104,-281,-26
2916000,-772,704,16720,115,-308,-52
2918000,-732,720,16712,114,-282,-16
2920000,-808,668,16656,109,-286,4
2922000,-752,660,16724,105,-296,-8
2924000,-844,692,16556,125,-269,-52
2926000,-792,704,16620,111,-311,-30
2928000,-832,700,16692,135,-280,-22
2930000,-788,700,16712,115,-286,-18
2932000,-824,748,16572,98,-309,-6
2934000,-816,708,16632,106,-294,-20
2936000,-844,768,16596,126,-270,-31
2938000,-780,728,16684,123,-263,-26
2940000,-860,728,16592,137,-291,8
2942000,-804,700,16576,108,-288,0
2944000,-768,760,16608,118,-295,-25
2946000,-836,708,16560,123,-276,-21
2948000,-804,696,16632,118,-285,-14
2950000,-868,752,16560,82,-334,-29
2952000,-820,792,16632,112,-289,19
2954000,-808,796,16628,93,-340,-16
2956000,-704,764,16636,133,-311,-32
2958000,-776,776,16552,112,-275,3
2960000,-772,712,16656,126,-289,1
2962000,-808,704,16564,98,-320,-42
2964000,-780,736,16616,124,-296,-14
2966000,-780,716,16692,111,-292,10
2968000,-764,792,16700,132,-267,-45
2970000,-812,700,16684,109,-317,-9
2972000,-744,712,16604,117,-296,19
2974000,-740,696,16684,130,-287,-15
2976000,-828,744,16640,107,-284,-2
2978000,-776,696,16636,114,-305,20
2980000,-780,704,16592,135,-255,-11
2982000,-796,756,16636,88,-278,9
2984000,-820,712,16576,102,-267,-17
2986000,-816,712,16672,138,-316,-40
2988004,-808,712,16640,115,-304,-26
2990000,-788,728,16652,115,-310,-6
2992000,-768,680,16800,104,-289,-26
2994000,-796,676,16668,118,-306,-40
2996000,-860,752,16588,114,-294,-16
2998000,-764,728,16512,109,-293,-16
3000000,-820,736,16640,111,-318,10
3002000,-784,712,16604,140,-293,-27
3004000,-792,692,16632,109,-291,-31
3006000,-776,780,16528,96,-300,3
3008000,-708,652,16632,108,-285,-17
3010000,-864,656,16724,119,-302,-41
3012000,-784,724,16616,144,-265,-22
3014000,-828,680,16704,96,-275,-1
3016000,-796,724,16648,80,-305,19
3018000,-828,716,16644,116,-303,-9
3020000,-792,760,16620,116,-295,-10
3022000,-760,732,16604,96,-279,-4
3024000,-748,720,16580,126,-251,-10
3026000,-868,724,16708,122,-300,-16
3028000,-776,732,16500,130,-267,-30
3030000,-852,712,16644,121,-313,-28
3032000,-836,692,16668,113,-291,-33
3034000,-816,660,16612,96,-273,0
3036000,-784,668,16588,95,-305,-27
3038000,-792,748,16628,126,-304,-15
3040004,-828,680,16568,96,-307,-11
3042000,-732,680,16536,136,-267,-8
3044000,-840,788,16636,97,-304,-11
3046000,-832,672,16652,107,-295,-22
3048000,-796,696,16560,129,-257,-32
3050000,-816,712,16616,130,-289,-31
3052000,-760,720,16564,101,-314,-15
3054000,-884,720,16640,106,-283,16
3056000,-716,712,16668,85,-282,-8
3058000,-760,748,16600,119,-306,-9
3060000,-716,732,16556,98,-270,-13
3062000,-780,744,16644,81,-306,-30
3064000,-884,688,16700,88,-293,-27
3066000,-808,756,16568,119,-304,-25
3068000,-840,744,16624,100,-288,-22
3070000,-804,772,16656,118,-312,-14
3072000,-840,756,16508,108,-340,-8
3074000,-764,672,16640,127,-249,-14
3076000,-800,728,16624,96,-294,-15
3078000,-708,736,16676,123,-258,-27
3080000,-776,648,16688,117,-289,-29
3082000,-760,696,16704,122,-282,-16
3084000,-808,712,16708,110,-286,-18
3086000,-780,776,16612,123,-296,14
3088000,-780,772,16620,108,-262,-34
3090000,-772,764,16696,85,-287,0
3092000,-772,732,16644,112,-302,-22
3094000,-800,664,16724,114,-260,-10
3096000,-800,732,16552,127,-321,-26
3098000,-792,716,16672,113,-279,-12
3100000,-748,748,16628,95,-292,0
3102000,-768,748,16596,123,-339,-22
3104004,-736,724,16692,110,-285,-29
3106000,-724,672,16640,96,-303,-5
3108000,-796,692,16596,117,-315,2
3110000,-828,732,16660,111,-300,-17
3112004,-792,660,16600,97,-261,-13
3114000,-840,672,16700,140,-316,-26
3116000,-784,724,16556,126,-310,-14
3118000,-740,672,16744,132,-321,-15
3120000,-772,676,16672,112,-283,6
3122000,-788,720,16588,113,-301,-32
3124000,-744,700,16736,105,-295,-46
3126000,-780,708,16628,117,-294,12
3128000,-804,648,16768,103,-286,-50
3130000,-752,708,16700,107,-280,-6
3132004,-836,724,16668,100,-288,-5
3134000,-768,764,16652,106,-302,-26
3136000,-788,780,16592,135,-317,-16
3138000,-812,696,16628,81,-259,-16
3140000,-724,684,16688,121,-290,-18
3142000,-776,716,16500,123,-301,-30
3144000,-808,668,16672,126,-286,-3
3146000,-812,744,16596,121,-299,-28
3148000,-768,732,16648,108,-294,-35
3150000,-800,696,16628,114,-324,8
3152000,-772,732,16560,104,-290,-8
3154000,-796,728,16696,131,-273,-16
3156000,-764,664,16560,116,-309,-24
3158000,-816,716,16656,118,-309,-23
3160000,-816,772,16684,102,-311,-3
3162000,-848,700,16672,146,-283,-44
3164000,-776,720,16592,137,-312,-30
3166000,-812,672,16636,116,-307,-44
3168000,-748,692,16636,92,-290,-6
3170000,-756,688,16584,144,-283,-7
3172000,-792,760,16640,118,-322,-17
3174000,-776,644,16684,125,-292,-9
3176000,-760,776,16532,92,-281,0
3178000,-768,732,16576,119,-304,-26
3180000,-808,696,16632,99,-270,-28
3182000,-756,772,16652,120,-302,-10
3184000,-752,728,16664,113,-286,8
3186000,-756,740,16668,100,-290,-25
3188000,-760,776,16628,91,-321,-24
3190004,-772,712,16736,115,-285,-25
3192000,-720,716,16676,105,-303,-8
3194000,-780,756,16664,117,-302,3
3196000,-792,704,16716,122,-304,-37
3198000,-804,780,16656,121,-278,-26
3200000,-828,740,16564,74,-298,14
3202000,-792,784,16644,147,-294,-10
3204004,-824,708,16596,98,-296,-3
3206004,-864,688,16816,90,-276,-48
3208000,-740,744,16628,119,-295,-14
3210000,-768,780,16684,117,-283,-28
3212000,-808,724,16648,121,-298,-26
3214000,-812,684,16676,98,-301,-50
3216000,-792,740,16584,116,-299,3
3218000,-740,704,16724,121,-286,17
3220000,-692,716,16660,141,-277,-38
3222000,-776,772,16636,104,-296,-37
3224000,-804,740,16528,113,-303,-17
3226000,-732,696,16716,83,-308,-41
3228000,-760,736,16724,124,-311,8
3230000,-816,772,16672,138,-291,-32
3232000,-816,716,16656,127,-302,-17
3234000,-848,752,16616,124,-278,-24
3236000,-868,768,16624,108,-274,-12
3238000,-848,740,16600,106,-326,-50
3240000,-816,728,16580,118,-286,-21
3242000,-796,732,16660,141,-306,-1
3244000,-792,736,16660,96,-297,-27
3246000,-784,716,16608,125,-291,-13
3248000,-860,712,16720,121,-296,-8
3250000,-792,728,16580,137,-307,-46
3252000,-836,728,16612,108,-289,-17
3254000,-812,696,16708,109,-265,-31
3256000,-848,700,16624,105,-257,8
3258000,-772,764,16628,129,-313,-17
3260000,-772,700,16664,124,-295,-43
3262000,-852,748,16616,91,-307,-13
3264000,-764,688,16804,159,-280,-4
3266000,-808,688,16784,128,-279,-11
3268000,-812,760,16540,102,-300,-11
3270000,-740,680,16668,128,-284,-16
3272000,-796,684,16784,145,-296,-45
3274000,-808,724,16628,116,-279,-10
3276000,-800,708,16688,118,-287,0
3278000,-796,772,16532,100,-287,-31
3280004,-760,732,16588,114,-296,-10
3282000,-808,708,16588,94,-295,4
3284000,-792,728,16644,141,-307,-8
3286000,-812,776,16636,79,-275,12
3288000,-772,744,16648,103,-276,-3
3290000,-816,692,16664,112,-276,0
3292000,-672,732,16636,155,-303,-13
3294000,-764,736,16620,158,-286,-15
3296000,-832,784,16636,146,-295,-10
3298000,-720,628,16620,101,-280,-17
3300004,-792,696,16544,100,-303,-27
3302000,-776,660,16692,94,-266,-17
3304000,-784,732,16612,141,-278,-44
3306004,-796,696,16592,67,-291,-42
3308000,-756,712,16632,120,-302,-31
3310000,-796,728,16752,151,-305,12
3312000,-864,700,16700,103,-254,-26
3314000,-772,696,16640,126,-320,-26
3316000,-760,692,16664,120,-291,23
3318004,-764,716,16684,106,-305,-3
3320000,-808,696,16660,123,-312,-17
3322000,-800,704,16604,67,-273,-11
3324000,-740,712,16732,117,-325,-27
3326000,-848,720,16672,107,-304,8
3328000,-820,780,16684,117,-279,-41
3330000,-828,652,16648,122,-300,-2
3332004,-764,664,16668,90,-267,-8
3334004,-796,736,16656,119,-289,-42
3336000,-744,692,16620,124,-293,-29
3338000,-796,760,16536,130,-312,-13
3340000,-780,716,16596,112,-298,21
3342000,-832,716,16672,127,-297,-9
3344000,-792,784,16716,131,-301,-10
3346000,-816,720,16640,105,-327,-13
3348000,-792,756,16608,99,-303,5
3350000,-808,716,16568,127,-296,1
3352000,-808,716,16688,115,-311,-18
3354000,-840,720,16660,114,-278,-2
3356000,-804,780,16708,108,-328,-25
3358000,-844,744,16764,110,-282,-29
3360000,-864,712,16684,114,-303,-4
3362000,-816,692,16616,135,-299,-12
3364000,-832,676,16692,96,-279,-13
3366000,-820,680,16524,103,-278,-25
3368000,-812,816,16696,97,-271,-17
3370000,-856,728,16668,142,-306,-36
3372000,-756,708,16572,100,-273,-16
3374000,-792,700,16668,125,-317,-59
3376000,-840,684,16672,93,-286,-4
3378000,-796,712,16660,112,-304,14
3380000,-752,656,16652,115,-270,-29
3382000,-788,688,16676,76,-278,0
3384000,-844,712,16556,142,-318,5
3386000,-768,732,16580,89,-308,-12
3388004,-804,732,16632,84,-322,-36
3390000,-764,696,16728,100,-281,-23
3392000,-808,720,16584,144,-276,-39
3394000,-820,752,16568,103,-329,-17
3396000,-792,688,16704,100,-264,-28
3398000,-728,656,16660,102,-323,20
3400000,-828,680,16684,121,-312,-2
3402000,-760,756,16692,109,-264,-45
3404000,-828,708,16580,122,-304,-3
3406000,-768,672,16720,128,-290,-40
3408000,-840,740,16576,93,-297,14
3410000,-792,788,16736,115,-303,-26
3412000,-800,768,16648,106,-294,-28
3414000,-804,644,16656,112,-322,-6
3416000,-812,732,16652,99,-286,23
3418000,-804,752,16680,125,-310,-15
3420000,-848,708,16612,100,-309,-1
3422000,-812,736,16620,125,-289,-16
3424000,-776,704,16640,95,-325,5
3426000,-792,708,16628,119,-294,-14
3428000,-804,684,16668,102,-297,-26
3430000,-828,664,16728,111,-280,-10
3432000,-824,704,16648,125,-292,-3
3434004,-728,668,16692,111,-296,-31
3436000,-796,700,16660,115,-287,-49
3438000,-716,780,16684,102,-315,-27
3440000,-736,724,16612,126,-313,10
3442000,-816,764,16680,133,-317,-25
3444000,-808,728,16732,140,-310,11
3446000,-764,708,16648,83,-308,-10
3448000,-812,704,16572,107,-278,3
3450000,-772,684,16564,99,-305,-3
3452000,-768,712,16552,138,-298,2
3454000,-828,728,16636,137,-275,-38
3456000,-816,760,16532,122,-303,-12
3458000,-812,716,16564,128,-289,-38
3460000,-760,628,16584,147,-299,-28
3462000,-820,728,16756,115,-291,-23
3464000,-788,672,16620,138,-314,-33
3466000,-768,780,16632,130,-296,18
3468004,-760,704,16636,82,-314,18
3470000,-828,656,16660,113,-276,-10
3472000,-764,724,16624,112,-258,-44
3474000,-792,708,16672,67,-336,-38
3476000,-760,736,16672,117,-277,-15
3478000,-808,724,16580,141,-288,-33
3480000,-812,692,16636,111,-278,-9
3482000,-804,756,16648,121,-294,-12
3484000,-792,716,16656,97,-307,1
3486000,-832,692,16600,103,-277,-5
3488000,-820,744,16636,136,-294,-6
3490000,-812,728,16656,106,-326,9
3492000,-764,764,16632,141,-280,-9
3494000,-848,732,16672,110,-298,-16
3496000,-768,700,16648,104,-310,3
3498000,-776,700,16600,115,-286,-2
3500000,-836,756,16712,96,-300,-18
3502000,-800,736,16540,126,-278,-36
3504000,-772,680,16580,92,-308,-25
3506000,-748,684,16720,92,-288,-32
3508000,-788,728,16684,154,-287,-24
3510000,-772,668,16700,76,-307,-24
3512000,-772,756,16600,96,-301,-30
3514000,-776,780,16660,125,-285,14
3516004,-804,728,16640,131,-275,-10
3518000,-788,756,16592,92,-311,-12
3520000,-744,704,16568,114,-310,-7
3522000,-876,728,16520,113,-262,4
3524000,-812,728,16604,113,-276,-33
3526000,-820,680,16652,95,-284,-27
3528000,-788,736,16648,112,-305,-15
3530000,-748,724,16664,97,-294,-33
3532000,-836,752,16540,93,-294,-9
3534000,-796,712,16700,137,-289,-13
3536000,-808,748,16648,91,-278,-13
3538000,-756,764,16568,105,-286,-33
3540000,-808,724,16632,111,-268,24
3542000,-828,704,16704,105,-303,4
3544000,-804,732,16664,139,-316,-26
3546000,-808,708,16600,139,-299,-13
3548000,-812,696,16640,125,-281,-9
3550000,-840,648,16596,93,-292,12
3552000,-832,704,16692,143,-324,-32
3554000,-784,760,16812,92,-315,-19
3556004,-864,672,16608,105,-314,0
3558000,-804,712,16584,123,-285,-40
3560000,-784,664,16672,100,-302,-36
3562004,-884,712,16592,99,-291,17
3564000,-824,768,16656,120,-300,-28
3566000,-828,740,16628,102,-292,15
3568000,-788,668,16776,105,-311,-17
3570000,-816,656,16700,134,-286,-32
3572000,-832,740,16648,82,-273,-26
3574000,-804,764,16588,117,-315,-9
3576000,-812,676,16672,113,-299,-19
3578000,-760,672,16616,115,-281,-27
3580000,-844,764,16608,101,-305,-16
3582000,-764,624,16652,115,-299,1
3584000,-820,756,16628,86,-265,-26
3586000,-744,724,16556,143,-319,-20
3588000,-752,660,16684,119,-304,-1
3590000,-820,772,16480,136,-275,-30
3592000,-756,752,16688,106,-287,-17
3594000,-816,728,16692,99,-299,-19
3596000,-756,776,16648,116,-294,8
3598000,-752,756,16664,107,-300,-25
3600004,-824,748,16616,154,-302,10
3602000,-768,708,16688,126,-260,-44
3604000,-876,732,16596,108,-276,-29
3606000,-852,704,16624,125,-263,-22
3608000,-776,668,16604,116,-311,-14
3610000,-820,712,16580,132,-290,-21
3612000,-796,700,16696,112,-276,-24
3614000,-788,728,16720,96,-276,3
3616000,-764,764,16564,132,-302,-13
3618000,-748,720,16556,114,-301,-19
3620000,-740,756,16584,122,-300,-10
3622000,-788,704,16576,103,-282,-25
3624000,-836,680,16704,84,-311,-23
3626000,-812,644,16764,117,-287,10
3628000,-776,660,16688,119,-299,-29
3630000,-756,760,16628,131,-289,-12
3632000,-832,632,16668,106,-301,-6
3634000,-828,772,16628,127,-305,-19
3636000,-800,660,16640,113,-286,-22
3638000,-748,620,16668,115,-294,-3
3640000,-772,684,16628,121,-273,-17
3642000,-684,732,16748,128,-275,-5
3644004,-848,756,16648,117,-300,-20
3646000,-808,756,16628,131,-297,-18
3648000,-804,672,16704,128,-288,-20
3650000,-828,708,16540,118,-283,-12
3652000,-788,704,16624,138,-309,7
3654000,-824,772,16636,74,-272,-23
3656000,-804,784,16664,123,-310,-3
3658000,-768,716,16712,127,-304,0
3660000,-848,680,16636,107,-312,-28
3662000,-796,712,16532,126,-300,-43
3664000,-752,780,16740,136,-279,-17
3666000,-792,688,16520,116,-285,12
3668000,-800,728,16640,126,-317,-18
3670000,-792,704,16536,99,-306,-19
3672000,-792,756,16612,145,-295,-20
3674000,-708,692,16656,96,-291,-19
3676000,-740,720,16644,111,-297,-9
3678000,-804,700,16628,99,-300,-22
3680000,-808,668,16656,117,-298,-35
3682000,-808,720,16620,142,-332,-9
3684000,-780,696,16588,84,-270,-27
3686000,-824,728,16688,104,-292,25
3688000,-804,688,16668,118,-292,4
3690000,-844,700,16664,85,-309,-16
3692000,-724,732,16588,99,-299,-23
3694000,-780,704,16548,126,-306,7
3696000,-804,740,16824,114,-288,-44
3698000,-820,692,16656,124,-304,-16
3700000,-780,732,16612,93,-310,-7
3702004,-800,640,16552,123,-306,-28
3704000,-788,740,16728,134,-297,-12
3706000,-816,708,16620,135,-283,11
3708000,-832,744,16632,118,-282,-11
3710000,-756,716,16588,94,-315,-13
3712000,-808,716,16656,93,-289,-21
3714000,-744,752,16660,99,-327,-19
3716004,-808,696,16632,110,-288,-12
3718004,-816,724,16620,130,-277,-8
3720000,-768,740,16660,117,-286,18
3722000,-800,760,16656,113,-298,-12
3724000,-768,692,16660,121,-301,-4
3726000,-796,708,16568,90,-306,-12
3728004,-828,676,16544,90,-260,-40
3730000,-768,680,16624,106,-299,-26
3732000,-788,668,16604,138,-298,-42
3734000,-744,676,16604,121,-312,2
3736000,-816,688,16612,128,-277,-19
3738000,-736,676,16500,141,-290,-29
3740000,-756,744,16620,116,-296,-33
3742000,-740,732,16632,122,-255,-32
3744000,-760,700,16504,80,-300,-30
3746000,-732,704,16628,120,-304,-38
3748000,-776,740,16644,116,-239,-18
3750000,-792,732,16820,127,-311,-31
3752000,-784,724,16652,135,-320,-16
3754000,-788,712,16624,116,-283,-36
3756000,-828,760,16712,99,-323,3
3758000,-828,724,16596,90,-300,17
3760000,-772,724,16688,83,-280,-22
3762000,-788,764,16548,113,-307,3
3764000,-720,740,16596,118,-301,-37
3766000,-756,740,16588,106,-264,11
3768000,-756,700,16576,125,-313,20
3770000,-788,768,16700,119,-295,-21
3772004,-804,748,16620,89,-316,-13
3774000,-764,696,16680,128,-315,-32
3776000,-780,644,16628,122,-304,-33
3778000,-748,676,16620,108,-291,-11
3780000,-844,676,16580,104,-336,-25
3782000,-756,756,16596,140,-302,-19
3784000,-768,716,16684,92,-296,-21
3786000,-752,684,16732,111,-308,14
3788000,-840,672,16608,127,-287,-28
3790000,-800,736,16664,98,-295,-41
3792000,-780,812,16712,127,-297,-21
3794000,-712,692,16648,86,-305,-22
3796000,-876,708,16628,110,-303,-19
3798000,-740,712,16660,118,-302,-21
3800000,-780,708,16744,131,-278,-17
3802000,-780,716,16656,135,-324,-37
3804000,-816,736,16644,106,-282,-21
3806000,-756,688,16668,121,-300,-7
3808000,-732,704,16624,135,-296,-28
3810000,-736,724,16560,146,-321,-26
3812004,-804,688,16508,101,-274,-42
3814000,-800,680,16584,139,-257,-36
3816000,-752,724,16660,131,-299,-14
3818004,-824,732,16608,140,-298,-14
3820000,-788,708,16720,112,-309,-9
3822000,-768,724,16660,91,-313,-31
3824000,-752,716,16636,140,-277,-7
3826000,-788,712,16736,108,-284,-19
3828000,-752,692,16620,117,-305,-8
3830000,-792,700,16612,127,-313,5
3832000,-756,744,16700,111,-306,-32
3834000,-828,760,16640,116,-287,5
3836000,-804,784,16720,85,-300,11
3838000,-788,744,16696,125,-292,-12
3840000,-784,716,16672,110,-283,-44
3842000,-784,704,16720,147,-308,-18
3844000,-756,700,16620,109,-282,-41
3846000,-816,752,16764,108,-311,1
3848000,-756,768,16628,114,-289,-2
3850000,-892,744,16712,122,-310,-47
3852000,-760,716,16616,109,-316,-36
3854000,-788,752,16584,107,-317,-30
3856004,-776,692,16628,102,-302,-25
3858000,-764,772,16680,135,-260,-5
3860000,-800,744,16624,100,-297,11
3862000,-768,648,16600,109,-311,-3
3864000,-784,704,16564,110,-290,-8
3866000,-840,752,16652,118,-273,1
3868000,-796,760,16576,100,-274,26
3870000,-780,732,16600,105,-294,-11
3872000,-820,740,16584,110,-292,-49
3874000,-840,760,16552,142,-299,-32
3876000,-808,760,16632,106,-271,-5
3878000,-796,776,16648,109,-282,-20
3880000,-716,760,16696,132,-285,-1
3882000,-768,716,16604,107,-280,-40
3884004,-800,728,16620,123,-287,-20
3886000,-780,688,16612,105,-269,-2
3888000,-780,740,16548,89,-323,-43
3890000,-748,748,16708,120,-319,-22
3892000,-868,696,16516,97,-300,19
3894000,-800,752,16704,158,-271,-20
3896000,-772,736,16664,92,-320,8
3898000,-772,768,16632,126,-275,-1
3900000,-784,712,16692,119,-285,-26
3902000,-804,744,16632,124,-275,-15
3904000,-744,716,16652,121,-302,-11
3906000,-832,760,16728,117,-265,-39
3908000,-768,728,16580,129,-316,1
3910000,-864,688,16532,112,-289,-28
3912000,-764,752,16596,109,-288,-7
3914000,-744,724,16620,95,-301,-2
3916000,-836,684,16696,131,-271,-2
3918000,-780,684,16524,118,-302,-32
3920000,-856,700,16700,97,-274,-24
3922000,-768,704,16644,106,-316,-29
3924000,-788,708,16692,94,-265,-21
3926000,-780,752,16660,126,-310,-7
3928000,-724,732,16612,108,-263,-70
3930000,-832,664,16680,104,-273,-42
3932000,-824,616,16624,113,-309,2
3934000,-832,736,16728,96,-257,-27
3936000,-768,652,16616,111,-292,-7
3938000,-764,728,16704,93,-304,-21
3940000,-744,760,16712,119,-302,-18
3942000,-780,700,16556,142,-281,-4
3944000,-768,744,16616,100,-285,16
3946000,-808,724,16668,119,-330,-21
3948000,-788,712,16664,112,-303,-46
3950000,-732,740,16632,86,-271,-15
3952000,-832,680,16648,129,-272,-20
3954000,-780,672,16596,112,-298,0
3956000,-780,712,16708,109,-316,0
3958004,-804,728,16604,77,-279,21
3960000,-772,760,16612,123,-292,-3
3962000,-784,724,16664,135,-325,-19
3964000,-808,756,16636,115,-285,-14
3966000,-888,692,16784,114,-258,-17
3968000,-768,712,16704,111,-331,18
3970000,-776,716,16708,85,-266,-34
3972000,-748,760,16680,124,-284,-19
3974000,-732,692,16684,106,-298,20
3976004,-776,736,16708,135,-285,-38
3978000,-796,676,16616,89,-285,-26
3980000,-812,760,16700,85,-299,2
3982000,-712,732,16660,86,-275,-19
3984000,-824,772,16736,127,-283,-12
3986000,-792,728,16672,123,-300,-1
3988000,-808,740,16584,92,-280,-33
3990000,-784,744,16656,64,-305,-15
3992000,-800,764,16612,112,-305,-10
3994000,-736,700,16664,112,-297,-13
3996000,-840,692,16592,135,-281,-1
3998000,-812,724,16612,138,-275,-12
4000000,-816,724,16664,93,-307,-40
4002000,-768,756,16696,119,-287,-25
4004000,-740,708,16580,130,-305,5
4006000,-852,760,16636,98,-293,-8
4008000,-736,708,16692,87,-330,-18
4010000,-764,716,16660,125,-297,-13
4012000,-732,744,16596,132,-290,-11
4014000,-756,716,16596,110,-284,-6
4016000,-812,748,16700,89,-272,5
4018000,-820,748,16624,100,-313,-4
4020000,-832,720,16688,79,-290,-10
4022000,-856,672,16572,129,-303,-9
4024000,-768,676,16580,125,-272,-10
4026000,-844,676,16716,106,-272,-13
4028004,-828,636,16580,106,-270,-14
4030000,-772,728,16576,129,-298,-14
4032000,-788,732,16724,95,-278,-17
4034000,-748,692,16752,107,-292,-32
4036000,-808,684,16720,107,-314,11
4038000,-852,724,16532,119,-277,6
4040000,-808,740,16676,89,-235,-8
4042000,-812,672,16664,129,-325,-19
4044000,-788,644,16656,86,-279,-17
4046000,-804,720,16712,114,-270,-4
4048000,-860,732,16588,109,-258,-18
4050000,-828,740,16544,94,-317,-54
4052000,-724,692,16616,130,-303,-13
4054000,-808,752,16668,97,-272,13
4056000,-836,724,16708,131,-268,-12
4058000,-756,748,16720,136,-318,-19
4060000,-796,712,16612,129,-264,12
4062000,-800,724,16716,141,-316,-53
4064000,-796,740,16652,112,-293,-12
4066000,-780,752,16652,82,-288,-23
4068004,-772,744,16692,130,-309,29
4070000,-808,740,16600,100,-284,-16
4072000,-724,688,16644,124,-296,1
4074004,-736,700,16560,129,-278,-19
4076000,-764,656,16632,96,-269,-11
4078000,-740,768,16684,86,-270,-17
4080000,-828,660,16656,117,-323,-38
4082000,-776,700,16684,132,-305,-12
4084000,-824,692,16708,108,-298,-8
4086000,-732,696,16620,98,-280,-13
4088000,-752,708,16632,104,-317,-3
4090000,-788,680,16600,154,-299,-14
4092000,-764,784,16636,107,-302,-16
4094000,-676,680,16720,103,-278,-48
4096000,-812,752,16628,124,-275,-18
4098000,-764,752,16564,82,-281,4
4100000,-804,752,16628,78,-307,1
4102000,-772,672,16620,109,-300,1
4104000,-808,676,16604,156,-285,-29
4106000,-780,752,16596,103,-298,-27
4108000,-736,676,16604,91,-272,-41
4110000,-724,712,16696,100,-300,-56
4112000,-772,772,16584,124,-272,16
4114000,-776,716,16688,133,-260,-20
4116000,-788,660,16688,131,-288,4
4118000,-844,728,16584,142,-278,-4
4120000,-760,728,16656,106,-335,12
4122000,-752,736,16648,119,-278,-31
4124000,-792,728,16688,94,-255,-21
4126000,-772,748,16736,121,-310,-15
4128000,-824,720,16624,102,-267,-7
4130000,-780,688,16584,91,-282,-18
4132000,-856,728,16684,113,-285,-4
4134000,-804,744,16572,128,-324,20
4136000,-796,784,16732,127,-343,-26
4138000,-832,728,16648,125,-284,2
4140000,-820,704,16588,93,-311,-30
4142000,-872,724,16596,109,-313,-37
4144000,-816,712,16596,107,-309,-24
4146000,-760,664,16580,104,-328,-35
4148000,-764,756,16820,115,-293,-1
4150000,-760,680,16636,129,-282,-26
4152000,-772,712,16520,102,-294,-23
4154000,-780,692,16560,124,-327,-44
4156000,-820,732,16644,128,-318,-5
4158000,-792,672,16700,102,-298,-20
4160000,-804,640,16616,98,-301,-31
4162000,-836,712,16604,126,-297,-32
4164000,-816,736,16704,86,-291,-19
4166000,-796,720,16728,86,-301,-18
4168000,-836,720,16652,126,-296,2
4170000,-740,720,16608,126,-314,-9
4172000,-876,720,16580,99,-301,-6
4174000,-852,696,16520,104,-284,6
4176000,-856,704,16560,99,-305,5
4178000,-784,756,16608,112,-300,0
4180000,-816,752,16576,91,-289,-37
4182000,-812,716,16628,81,-299,-34
4184000,-744,692,16660,134,-298,-5
4186000,-740,680,16516,114,-303,7
4188000,-808,692,16592,95,-275,-14
4190004,-796,668,16672,84,-296,-20
4192000,-752,732,16596,122,-306,-39
4194000,-784,756,16648,105,-308,-30
4196000,-828,688,16600,125,-283,-25
4198000,-808,736,16660,90,-300,-55
4200000,-836,704,16664,170,-316,28
4202004,-796,700,16612,85,-315,-12
4204000,-808,724,16636,112,-286,-3
4206000,-808,724,16616,125,-292,-39
4208000,-760,676,16560,83,-289,-27
4210000,-724,748,16644,124,-307,-44
4212000,-824,736,16632,111,-285,-14
4214004,-864,724,16624,104,-298,-10
4216000,-800,728,16628,123,-293,-4
4218000,-792,704,16744,132,-278,-43
4220000,-696,732,16676,89,-315,1
4222000,-856,700,16708,121,-309,-12
4224000,-760,712,16672,89,-259,-16
4226000,-804,732,16664,100,-275,-8
4228000,-804,732,16656,143,-315,17
4230000,-780,760,16676,118,-282,-10
4232000,-780,680,16620,93,-295,-16
4234000,-752,680,16688,120,-310,-2
4236000,-720,644,16640,132,-280,18
4238000,-844,756,16576,121,-307,-4
4240000,-804,732,16748,120,-314,-20
4242000,-768,660,16656,120,-309,-2
4244000,-796,640,16696,98,-287,-14
4246000,-824,748,16648,117,-311,-5
4248000,-820,724,16628,119,-286,9
4250000,-800,720,16664,93,-321,-29
4252000,-776,676,16716,110,-291,-23
4254000,-820,744,16636,113,-286,-1
4256000,-764,672,16632,120,-280,32
4258000,-828,768,16740,100,-266,-36
4260000,-748,700,16680,119,-298,-19
4262000,-808,736,16524,122,-283,-14
4264000,-800,724,16628,124,-346,-21
4266000,-752,724,16652,132,-301,-4
4268000,-852,724,16624,136,-288,-30
4270000,-792,708,16668,115,-292,-1
4272000,-724,724,16636,101,-333,19
4274000,-792,760,16624,99,-287,-14
4276000,-740,712,16656,106,-321,-5
4278000,-856,716,16688,118,-289,-6
4280000,-764,736,16640,118,-275,-24
4282000,-824,704,16600,124,-300,-37
4284004,-820,720,16500,129,-323,-20
4286000,-820,752,16704,96,-302,-10
4288000,-808,748,16664,139,-294,-30
4290000,-844,720,16576,117,-291,-33
4292000,-776,708,16684,94,-283,-24
4294000,-808,716,16588,125,-297,-31
4296000,-788,724,16628,122,-271,-45
4298000,-808,712,16728,129,-273,18
4300000,-744,752,16608,119,-298,-15
4302000,-772,744,16612,94,-315,19
4304000,-780,648,16708,92,-293,-17
4306000,-812,728,16716,117,-284,-17
4308000,-736,728,16772,116,-299,-24
4310000,-808,736,16684,143,-285,-15
4312000,-744,680,16648,140,-256,-16
4314000,-776,712,16568,76,-332,5
4316000,-808,744,16776,122,-315,0
4318000,-820,692,16748,131,-251,-12
4320000,-820,736,16596,103,-310,-9
4322000,-764,760,16736,123,-287,-47
4324004,-812,728,16736,152,-295,-15
4326000,-752,724,16768,123,-268,1
4328000,-784,692,16696,114,-285,-31
4330004,-844,720,16664,139,-324,-30
4332000,-840,720,16656,130,-257,0
4334000,-828,672,16736,113,-312,8
4336000,-736,732,16596,148,-291,1
4338000,-768,688,16564,141,-289,-13
4340000,-824,728,16648,128,-282,-34
4342000,-772,704,16680,96,-319,-3
4344000,-840,716,16684,81,-275,-29
4346000,-860,644,16680,121,-292,-8
4348000,-788,736,16756,126,-309,-37
4350000,-800,664,16696,129,-284,9
4352000,-844,708,16628,99,-304,-5
4354000,-708,736,16612,104,-304,4
4356000,-788,736,16648,115,-299,-14
4358000,-800,680,16568,114,-268,-44
4360000,-788,708,16676,109,-292,-18
4362000,-812,716,16676,125,-321,8
4364000,-804,716,16540,105,-288,-18
4366000,-848,644,16656,92,-302,-6
4368000,-828,696,16652,98,-269,5
4370000,-776,732,16560,115,-290,-2
4372000,-836,700,16700,147,-275,-24
4374000,-788,704,16644,102,-302,-11
4376000,-816,676,16484,99,-308,0
4378000,-788,748,16740,126,-295,-5
4380000,-776,672,16616,132,-283,3
4382000,-864,760,16704,101,-265,-12
4384000,-792,692,16664,97,-291,-33
4386000,-712,756,16648,135,-306,-31
4388000,-784,720,16704,119,-280,-13
4390000,-744,764,16688,123,-314,-12
4392000,-748,768,16744,100,-289,22
4394000,-716,744,16656,85,-278,-22
4396004,-804,664,16716,120,-305,-1
4398000,-824,704,16608,127,-297,-17
4400000,-736,716,16720,87,-309,-26
4402000,-828,748,16636,140,-324,1
4404000,-832,776,16688,101,-292,-12
4406000,-836,728,16692,158,-293,7
4408000,-836,696,16668,129,-294,3
4410000,-800,684,16632,105,-273,-52
4412000,-780,736,16552,106,-307,-24
4414004,-764,712,16616,133,-285,-30
4416000,-772,744,16592,87,-273,-1
4418000,-728,664,16724,104,-305,-15
4420000,-752,716,16672,88,-302,-13
4422000,-840,752,16640,127,-283,3
4424000,-792,720,16580,105,-311,-29
4426000,-812,664,16628,144,-291,-55
4428000,-784,692,16576,120,-320,-17
4430000,-820,720,16672,120,-288,-38
4432004,-820,716,16768,115,-247,-45
4434000,-784,748,16692,136,-268,-2
4436000,-824,716,16704,87,-298,-12
4438000,-764,732,16604,113,-287,-32
4440000,-788,704,16752,158,-298,-33
4442000,-832,724,16664,120,-307,-7
4444000,-768,676,16644,129,-288,12
4446000,-748,776,16604,123,-272,-3
4448000,-784,724,16608,135,-268,-36
4450000,-768,732,16600,79,-317,-15
4452004,-788,808,16668,100,-309,-20
4454000,-816,728,16696,125,-283,14
4456000,-824,756,16552,138,-299,-13
4458004,-760,720,16636,95,-277,27
4460000,-788,760,16652,101,-311,-1
4462000,-804,760,16656,155,-278,-28
4464000,-768,752,16660,112,-326,32
4466000,-764,712,16664,91,-279,-33
4468000,-748,704,16628,124,-294,-36
4470000,-792,708,16660,123,-301,-6
4472000,-752,704,16564,98,-291,-37
4474000,-808,740,16672,85,-275,-10
4476000,-792,756,16604,149,-294,-32
4478000,-808,676,16708,139,-312,-16
4480000,-764,720,16572,127,-290,6
4482000,-812,704,16636,108,-278,-19
4484000,-760,712,16612,89,-304,18
4486000,-812,768,16656,125,-292,-43
4488000,-768,700,16692,123,-312,-11
4490000,-764,716,16732,122,-297,-12
4492000,-708,716,16660,78,-298,-27
4494000,-832,744,16576,104,-285,5
4496000,-848,704,16620,142,-283,16
4498000,-764,676,16680,110,-306,-14
4500000,-760,688,16676,127,-302,-18
4502000,-816,636,16516,107,-289,12
4504000,-836,728,16656,129,-311,-20
4506000,-836,712,16616,130,-324,-20
4508000,-832,724,16684,120,-286,18
4510000,-820,728,16644,109,-250,6
4512000,-860,696,16664,100,-299,-42
4514000,-820,732,16720,105,-285,-2
4516000,-768,752,16580,144,-312,-16
4518000,-788,744,16608,107,-314,-18
4520000,-828,688,16712,107,-294,-24
4522000,-772,744,16652,115,-272,0
4524000,-804,748,16656,120,-285,-35
4526000,-780,724,16632,99,-258,-14
4528000,-816,704,16684,123,-273,3
4530000,-752,744,16564,86,-302,-15
4532000,-744,744,16536,127,-273,-4
4534000,-756,696,16628,106,-278,-11
4536000,-784,740,16748,93,-302,-10
4538000,-744,676,16692,126,-305,-31
4540000,-788,760,16696,117,-283,-6
4542000,-804,768,16620,127,-299,-17
4544004,-812,700,16640,125,-309,-19
4546000,-820,668,16616,117,-292,-12
4548000,-812,696,16684,91,-280,-3
4550000,-772,760,16628,115,-284,-33
4552000,-848,688,16676,127,-278,-43
4554000,-788,712,16676,90,-288,-22
4556000,-844,736,16652,107,-280,-12
4558000,-776,724,16604,133,-300,-13
4560000,-772,752,16744,96,-296,-38
4562000,-800,700,16656,110,-316,-18
4564000,-788,800,16700,137,-308,-41
4566000,-772,744,16628,101,-301,-25
4568000,-780,724,16588,125,-282,-11
4570000,-832,736,16600,81,-316,-5
4572000,-768,624,16544,121,-305,-13
4574000,-808,684,16552,102,-286,-4
4576000,-828,688,16772,112,-269,-32
4578000,-744,736,16640,97,-292,4
4580000,-796,700,16692,130,-302,-17
4582000,-744,744,16572,109,-300,-5
4584000,-788,708,16652,118,-316,-34
4586000,-812,712,16656,122,-284,-24
4588000,-776,732,16560,120,-323,-23
4590000,-800,776,16700,97,-316,-5
4592000,-768,712,16632,104,-254,-9
4594000,-784,660,16616,124,-263,5
4596000,-816,752,16732,113,-275,-26
4598000,-800,740,16664,113,-288,0
4600000,-796,692,16660,111,-288,-9
4602000,-820,732,16652,138,-278,-2
4604000,-764,736,16636,99,-310,-44
4606000,-828,752,16616,106,-284,-13
4608000,-760,704,16764,115,-299,-49
4610000,-808,760,16628,95,-293,0
4612000,-744,752,16644,107,-297,-22
4614000,-808,660,16584,121,-281,-22
4616000,-752,696,16692,140,-310,-22
4618000,-768,676,16564,88,-290,-23
4620000,-816,744,16616,111,-249,-15
4622000,-764,712,16552,115,-310,1
4624000,-796,744,16680,125,-326,-30
4626000,-780,756,16680,96,-281,15
4628000,-764,736,16560,108,-262,-38
4630000,-744,712,16724,126,-324,26
4632000,-772,716,16500,112,-336,-8
4634000,-748,760,16612,121,-288,-9
4636000,-828,684,16628,114,-304,-12
4638000,-824,700,16736,109,-299,-23
4640000,-832,660,16592,110,-304,-37
4642000,-852,732,16748,143,-304,-13
4644000,-728,704,16724,118,-283,-22
4646000,-848,756,16592,115,-320,-20
4648000,-884,764,16672,116,-276,-9
4650000,-824,680,16604,109,-254,-34
4652000,-776,720,16636,115,-281,-27
4654000,-764,768,16652,113,-293,-20
4656000,-800,724,16688,100,-293,-48
4658000,-788,696,16620,126,-295,-35
4660000,-808,696,16672,136,-297,-24
4662000,-860,696,16684,120,-307,-8
4664000,-812,664,16676,132,-277,-4
4666000,-808,760,16700,128,-296,-4
4668000,-844,732,16636,125,-312,-14
4670000,-828,728,16660,117,-305,-1
4672004,-804,740,16664,106,-299,-28
4674000,-804,684,16608,117,-306,-43
4676000,-792,708,16748,110,-289,2
4678000,-764,704,16676,109,-311,-5
4680000,-772,696,16684,115,-297,-8
4682000,-852,680,16660,109,-273,16
4684000,-740,728,16684,80,-288,-20
4686000,-852,724,16636,126,-303,-36
4688000,-788,700,16548,103,-279,-16
4690000,-720,688,16652,113,-288,-8
4692000,-788,768,16696,107,-278,-17
4694000,-748,700,16704,115,-298,-21
4696000,-800,680,16724,113,-307,-1
4698000,-780,744,16660,114,-309,-11
4700000,-756,740,16624,100,-281,-4
4702000,-784,732,16668,113,-270,-14
4704000,-828,752,16608,114,-313,-51
4706000,-820,700,16768,116,-293,24
4708000,-836,736,16572,136,-295,23
4710000,-784,688,16596,120,-265,-32
4712000,-824,676,16616,122,-335,-3
4714000,-788,692,16720,114,-268,5
4716000,-792,736,16644,121,-291,-15
4718000,-816,720,16688,117,-269,-23
4720000,-784,648,16616,108,-333,3
4722000,-828,732,16728,128,-283,-35
4724000,-824,772,16704,126,-317,-3
4726000,-800,692,16672,144,-298,-3
4728000,-768,768,16604,109,-266,-21
4730000,-788,720,16692,107,-289,-52
4732000,-768,756,16612,109,-289,-36
4734000,-772,848,16568,116,-289,-25
4736000,-772,796,16648,87,-280,6
4738000,-784,712,16576,97,-291,-1
4740000,-736,720,16692,101,-313,-28
4742000,-812,740,16720,89,-260,-4
4744000,-852,716,16620,113,-275,-35
4746000,-756,752,16712,113,-338,-21
4748004,-796,720,16728,115,-298,-42
4750000,-764,700,16640,130,-263,13
4752000,-832,708,16644,103,-323,-13
4754000,-868,772,16572,112,-308,-28
4756000,-792,652,16648,149,-278,-19
4758000,-816,748,16588,122,-299,9
4760000,-824,744,16756,102,-258,1
4762000,-776,772,16700,129,-338,-8
4764000,-788,712,16568,133,-283,-18
4766000,-788,676,16628,98,-267,-24
4768000,-808,708,16644,117,-281,-11
4770000,-784,684,16684,98,-293,10
4772000,-744,732,16608,125,-281,-14
4774000,-728,708,16616,113,-301,-31
4776000,-784,732,16616,116,-308,-13
4778000,-804,708,16708,105,-323,-36
4780004,-776,752,16604,106,-311,13
4782000,-756,812,16636,111,-290,-47
4784000,-752,724,16748,131,-318,-37
4786000,-776,692,16640,104,-300,-9
4788000,-788,728,16604,145,-265,17
4790000,-816,756,16568,92,-303,-59
4792000,-824,740,16716,109,-281,2
4794000,-724,708,16688,120,-291,7
4796000,-832,708,16580,125,-302,-40
4798000,-852,712,16652,137,-286,2
4800000,-772,728,16640,112,-283,-26
4802000,-784,760,16640,107,-284,-11
4804000,-808,728,16616,141,-301,8
4806000,-792,760,16684,113,-308,5
4808000,-792,708,16612,117,-293,-41
4810000,-772,768,16632,114,-283,-8
4812000,-788,700,16632,111,-292,-9
4814000,-832,788,16660,67,-297,2
4816000,-740,636,16756,128,-315,-25
4818000,-780,684,16792,100,-277,-7
4820000,-728,712,16636,136,-288,-7
4822000,-808,720,16636,157,-294,-17
4824000,-816,716,16756,130,-296,-6
4826000,-864,740,16644,116,-279,26
4828000,-740,704,16660,139,-278,-36
4830004,-792,676,16712,93,-277,-16
4832000,-760,744,16660,94,-294,-37
4834000,-796,724,16628,128,-286,32
4836000,-756,696,16656,133,-294,-28
4838000,-792,696,16684,121,-303,-10
4840000,-780,704,16576,125,-255,-18
4842000,-772,716,16636,100,-294,-6
4844004,-736,728,16612,117,-293,-11
4846000,-804,708,16600,97,-275,-9
4848000,-800,648,16748,121,-299,10
4850000,-820,724,16728,130,-287,-7
4852000,-808,732,16580,105,-271,4
4854000,-800,688,16652,134,-289,0
4856000,-780,664,16668,125,-295,-37
4858000,-760,712,16664,106,-311,-2
4860000,-828,692,16680,97,-282,-59
4862000,-796,732,16748,174,-297,-1
4864000,-796,700,16628,115,-330,2
4866000,-784,740,16584,111,-262,-33
4868000,-768,680,16656,133,-285,1
4870000,-748,704,16648,93,-258,-15
4872000,-756,624,16732,87,-318,-30
4874000,-768,712,16664,132,-284,-19
4876004,-812,708,16656,115,-289,-16
4878000,-744,704,16636,89,-285,25
4880000,-796,724,16676,115,-295,0
4882000,-708,784,16676,117,-299,1
4884000,-752,740,16540,133,-274,-10
4886000,-796,756,16668,112,-317,-13
4888000,-832,764,16728,104,-297,-18
4890000,-812,708,16684,109,-314,-1
4892000,-792,688,16680,141,-302,3
4894000,-844,736,16640,98,-282,-20
4896000,-792,680,16772,127,-270,-18
4898000,-768,744,16760,127,-284,-40
4900000,-752,652,16520,102,-303,5
4902000,-848,704,16636,134,-283,29
4904000,-832,704,16700,133,-307,-10
4906000,-748,664,16636,114,-295,-20
4908000,-752,692,16800,112,-285,-11
4910000,-768,696,16532,129,-302,11
4912000,-836,720,16708,88,-304,-25
4914000,-784,680,16612,93,-273,-12
4916000,-812,776,16672,120,-281,-11
4918000,-776,720,16644,91,-277,-16
4920000,-856,716,16664,128,-304,-15
4922000,-740,744,16612,76,-321,13
4924004,-736,744,16564,138,-276,-26
4926000,-816,688,16628,136,-281,-18
4928000,-772,744,16664,114,-316,-47
4930000,-836,772,16680,112,-313,-18
4932000,-816,724,16604,123,-312,14
4934000,-800,704,16720,104,-277,8
4936000,-792,692,16620,122,-285,8
4938000,-788,752,16608,95,-301,-12
4940000,-772,684,16712,103,-302,12
4942000,-840,708,16672,142,-288,-15
4944000,-812,804,16624,100,-296,-21
4946000,-760,668,16592,99,-300,-2
4948000,-820,740,16680,118,-261,-17
4950000,-752,676,16612,84,-304,4
4952000,-768,700,16572,89,-313,-20
4954000,-764,748,16552,126,-346,-11
4956000,-776,760,16632,101,-266,-3
4958000,-796,724,16632,100,-287,-20
4960000,-796,712,16600,124,-302,-5
4962000,-788,744,16652,112,-322,-24
4964000,-816,748,16668,99,-296,-15
4966000,-796,800,16652,117,-286,15
4968000,-792,712,16556,126,-288,-16
4970000,-756,700,16632,111,-287,1
4972000,-816,728,16588,116,-278,-10
4974000,-792,712,16680,92,-311,-18
4976000,-788,756,16628,140,-264,-19
4978000,-808,676,16484,83,-272,-37
4980000,-840,648,16688,118,-292,-32
4982004,-836,692,16680,113,-306,17
4984000,-808,684,16632,108,-302,-4
4986000,-748,748,16668,126,-285,-28
4988000,-780,732,16592,121,-287,-44
4990000,-796,724,16672,116,-291,6
4992000,-756,724,16808,113,-297,-24
4994000,-772,708,16728,119,-277,-32
4996004,-832,752,16604,105,-290,1
4998004,-764,720,16672,117,-274,-23
5000000,-768,700,16684,123,-276,-25
5002000,-776,724,16608,125,-315,-12
5004000,-800,752,16656,148,-296,-7
5006000,-816,724,16652,88,-290,5
5008000,-856,704,16772,111,-326,-12
5010000,-820,728,16660,135,-277,-9
5012000,-772,728,16744,104,-317,-39
5014000,-848,668,16676,135,-311,0
5016000,-820,668,16684,119,-273,-16
5018000,-772,684,16680,128,-328,-27
5020000,-840,708,16588,110,-276,-12
5022000,-788,684,16700,101,-291,-9
5024000,-804,756,16680,76,-316,14
5026000,-732,676,16640,104,-310,-6
5028000,-776,752,16736,139,-283,12
5030000,-852,744,16720,123,-307,5
5032000,-808,720,16692,87,-307,-4
5034000,-784,708,16704,157,-310,-4
5036000,-780,756,16672,112,-313,-13
5038000,-872,724,16572,117,-303,-18
5040000,-724,700,16544,92,-285,-48
5042000,-804,684,16600,119,-292,-21
5044000,-724,684,16684,112,-288,-20
5046000,-800,688,16664,128,-303,-5
5048000,-780,728,16696,128,-273,-30
5050000,-784,728,16648,101,-305,-34
5052004,-808,764,16644,100,-297,-34
5054000,-840,744,16584,97,-313,-27
5056000,-740,712,16744,124,-325,23
5058000,-780,728,16696,122,-278,-21
5060000,-848,692,16736,141,-302,1
5062000,-768,684,16700,134,-321,-21
5064000,-760,724,16592,147,-314,-51
5066000,-776,680,16576,116,-302,24
5068000,-760,724,16620,136,-301,-22
5070000,-796,692,16636,143,-278,7
5072000,-836,696,16600,129,-290,-23
5074000,-792,704,16636,107,-300,-11
5076000,-844,672,16596,128,-308,-19
5078000,-780,744,16620,115,-262,-4
5080000,-808,712,16628,123,-295,-39
5082000,-776,740,16664,120,-282,-34
5084000,-792,740,16652,125,-302,-17
5086000,-744,700,16756,140,-287,5
5088000,-872,724,16604,104,-282,-31
5090000,-820,672,16628,102,-305,-15
5092000,-796,684,16772,120,-291,-15
5094000,-804,676,16636,111,-294,-21
5096000,-804,692,16600,86,-296,-30
5098000,-808,676,16592,123,-284,3
5100000,-848,736,16676,133,-311,6
5102000,-772,720,16680,136,-308,-21
5104000,-768,688,16704,118,-275,18
5106000,-832,740,16684,145,-287,-4
5108000,-832,720,16604,88,-295,-19
5110004,-772,744,16748,115,-318,-37
5112000,-792,744,16644,129,-292,-15
5114000,-756,720,16552,115,-311,2
5116000,-784,724,16696,124,-292,-41
5118000,-720,736,16616,135,-284,1
5120000,-780,792,16624,84,-276,6
5122000,-864,684,16760,107,-298,-2
5124004,-828,740,16636,122,-289,-3
5126004,-784,728,16684,97,-316,-38
5128000,-824,736,16736,117,-324,-26
5130000,-784,740,16632,139,-306,-17
5132000,-844,696,16608,104,-272,-20
5134000,-860,664,16568,111,-305,-2
5136000,-800,700,16628,110,-290,-35
5138000,-784,696,16696,137,-318,-2
5140000,-792,716,16660,106,-292,-9
5142000,-756,736,16660,113,-284,-28
5144000,-788,720,16672,98,-281,-12
5146000,-776,704,16564,108,-277,-18
5148000,-792,720,16680,139,-280,-12
5150000,-808,724,16548,124,-296,-4
5152000,-764,704,16556,125,-276,-17
5154000,-764,724,16672,91,-291,-8
5156000,-728,688,16608,108,-279,-31
5158000,-812,716,16716,128,-307,-18
5160000,-816,684,16752,102,-293,-23
5162000,-772,716,16596,108,-295,-3
5164000,-876,720,16688,107,-291,-46
5166000,-788,664,16532,122,-290,-11
5168000,-776,720,16692,112,-312,-24
5170000,-816,784,16624,114,-272,-25
5172000,-772,684,16756,120,-294,-5
5174000,-836,708,16672,136,-329,-57
5176000,-884,712,16628,138,-289,-26
5178000,-792,716,16592,114,-291,-21
5180004,-780,708,16672,103,-313,18
5182000,-872,680,16720,122,-283,4
5184000,-784,784,16608,129,-304,-21
5186000,-808,688,16656,115,-296,16
5188000,-820,708,16636,125,-287,1
5190000,-796,736,16564,142,-328,-16
5192000,-744,700,16636,92,-320,-9
5194000,-828,680,16660,114,-316,-17
5196000,-876,776,16688,130,-242,-2
5198000,-808,720,16580,94,-309,-39
5200000,-788,712,16580,95,-337,-9
5202000,-772,672,16624,102,-327,-30
5204000,-756,696,16712,136,-258,-30
5206000,-780,700,16616,137,-277,-1
5208004,-812,716,16604,81,-301,-20
5210000,-788,660,16620,110,-277,-25
5212000,-744,684,16676,136,-303,-36
5214000,-788,620,16648,93,-300,-12
5216000,-804,648,16712,121,-294,-5
5218000,-808,756,16664,116,-316,-7
5220004,-800,820,16668,119,-275,-11
5222000,-784,688,16548,108,-289,-7
5224000,-772,720,16708,99,-301,-15
5226004,-832,780,16552,131,-319,-34
5228000,-804,744,16620,110,-282,-35
5230000,-776,724,16572,106,-310,-7
5232000,-796,740,16676,124,-257,14
5234000,-776,680,16624,118,-290,-26
5236000,-760,720,16728,100,-279,-11
5238004,-852,776,16640,106,-304,-3
5240000,-780,692,16676,115,-308,-25
5242000,-812,724,16640,120,-273,-17
5244000,-792,724,16492,129,-322,-14
5246000,-756,668,16660,126,-282,-29
5248000,-784,784,16680,115,-262,-22
5250000,-804,684,16792,143,-309,4
5252004,-772,708,16616,116,-320,-23
5254004,-800,688,16644,91,-288,-28
5256000,-808,676,16680,129,-292,-16
5258000,-760,712,16776,100,-279,3
5260000,-752,736,16584,112,-299,-45
5262000,-748,740,16732,115,-293,23
5264000,-752,692,16600,139,-281,-31
5266000,-772,668,16748,131,-294,-32
5268000,-728,680,16712,122,-313,3
5270000,-816,736,16676,101,-297,1
5272000,-712,680,16732,147,-310,-27
5274000,-736,744,16584,94,-286,-29
5276000,-836,676,16668,94,-279,-25
5278000,-808,752,16668,109,-273,-36
5280000,-724,724,16652,116,-279,2
5282000,-804,724,16656,111,-301,7
5284000,-760,724,16632,139,-321,-23
5286000,-740,660,16656,133,-289,-35
5288000,-820,760,16700,98,-289,-28
5290000,-784,728,16664,130,-307,2
5292000,-820,740,16628,143,-291,7
5294000,-784,732,16688,110,-287,-31
5296000,-852,780,16592,109,-311,-38
5298000,-808,684,16620,102,-320,-41
5300000,-860,744,16656,95,-294,4
5302000,-704,724,16672,118,-272,0
5304000,-760,760,16608,116,-311,6
5306000,-860,728,16656,81,-302,-27
5308004,-756,756,16700,118,-300,-25
5310000,-772,740,16648,99,-295,-36
5312000,-704,768,16608,108,-306,-1
5314000,-740,688,16604,119,-304,-17
5316000,-776,724,16548,143,-322,-10
5318000,-716,720,16688,127,-290,9
5320000,-736,732,16680,126,-321,-19
5322000,-804,752,16716,75,-276,-5
5324000,-764,736,16616,149,-267,-14
5326000,-784,732,16648,122,-311,-9
5328000,-764,760,16684,123,-273,-46
5330000,-800,724,16664,132,-291,-28
5332000,-792,788,16568,88,-292,-23
5334000,-764,720,16700,102,-299,-25
5336000,-812,680,16684,98,-305,-18
5338000,-824,656,16588,109,-315,-23
5340000,-760,700,16672,110,-306,-21
5342000,-776,704,16672,139,-296,-20
5344004,-748,716,16668,100,-307,-36
5346000,-800,740,16760,112,-280,-4
5348000,-820,692,16580,115,-274,-38
5350000,-804,664,16668,116,-279,-26
5352000,-820,744,16548,84,-329,6
5354000,-748,708,16588,65,-317,-4
5356000,-800,740,16584,111,-261,-10
5358000,-832,744,16636,116,-311,-30
5360000,-768,792,16704,118,-270,9
5362000,-776,716,16652,92,-262,-27
5364000,-748,692,16768,103,-305,0
5366000,-816,772,16680,123,-274,-15
5368000,-800,712,16588,102,-268,-35
5370000,-780,744,16660,133,-284,3
5372000,-728,708,16752,148,-330,11
5374000,-780,764,16760,118,-294,12
5376000,-740,652,16564,109,-285,-42
5378000,-748,716,16696,120,-284,-49
5380000,-828,788,16608,100,-318,-15
5382000,-776,704,16608,115,-270,-27
5384000,-792,736,16680,92,-300,-5
5386000,-792,692,16648,97,-304,-16
5388000,-852,668,16636,97,-294,1
5390000,-792,652,16708,109,-279,-12
5392000,-840,748,16720,118,-289,-32
5394000,-840,776,16620,85,-286,-14
5396000,-784,744,16668,113,-289,-53
5398000,-796,736,16644,138,-265,-42
5400000,-808,700,16640,114,-288,-25
5402000,-828,720,16644,121,-303,10
5404000,-792,756,16712,118,-305,-14
5406000,-824,744,16620,97,-308,-9
5408000,-776,732,16692,116,-291,-11
5410000,-800,720,16668,95,-307,-25
5412000,-816,680,16596,141,-265,2
5414000,-804,756,16632,110,-312,-3
5416000,-832,656,16620,111,-288,-23
5418000,-724,712,16744,115,-311,-15
5420004,-804,788,16580,93,-297,-17
5422000,-768,724,16644,153,-330,-26
5424000,-796,668,16664,107,-302,-33
5426000,-764,656,16556,137,-267,6
5428000,-776,804,16692,106,-301,-9
5430000,-824,760,16724,108,-307,-18
5432000,-864,716,16640,100,-327,-1
5434000,-808,828,16700,92,-287,-11
5436000,-796,620,16624,71,-316,-9
5438000,-756,716,16644,120,-294,-24
5440000,-804,656,16580,111,-298,-23
5442000,-832,700,16640,98,-314,-41
5444000,-824,720,16736,112,-315,13
5446000,-788,676,16740,112,-292,9
5448000,-880,696,16628,139,-322,-28
5450000,-852,732,16616,132,-281,-27
5452000,-764,764,16564,112,-261,-26
5454000,-780,716,16644,95,-304,-29
5456000,-876,720,16640,94,-295,-19
5458000,-736,756,16636,107,-285,-18
5460000,-788,704,16640,139,-285,-17
5462000,-748,764,16616,102,-296,-26
5464000,-804,708,16564,127,-256,-7
5466000,-732,676,16640,82,-286,1
5468000,-788,724,16688,94,-295,-20
5470000,-788,752,16536,147,-264,-19
5472000,-768,696,16668,80,-298,-39
5474000,-872,748,16624,100,-288,1
5476000,-760,776,16672,151,-271,-13
5478000,-760,680,16640,105,-279,-18
5480000,-772,788,16724,117,-304,-21
5482004,-808,740,16788,118,-269,-21
5484000,-756,760,16652,141,-306,-6
5486000,-772,720,16672,78,-302,-5
5488000,-788,712,16604,153,-292,-18
5490000,-824,732,16584,106,-281,19
5492000,-856,676,16600,101,-309,-43
5494000,-824,728,16620,129,-281,-50
5496000,-792,748,16624,121,-283,-9
5498000,-872,696,16672,126,-270,12
5500000,-764,748,16668,114,-327,-39
5502000,-776,744,16540,96,-293,-7
5504000,-744,764,16676,112,-288,-33
5506000,-776,696,16516,116,-306,-23
5508000,-764,656,16656,115,-274,0
5510000,-808,656,16600,145,-277,-44
5512000,-760,736,16696,108,-306,-12
5514000,-724,648,16728,131,-284,-53
5516004,-772,700,16608,132,-318,-23
5518000,-824,756,16644,79,-305,-31
5520004,-792,768,16716,128,-319,9
5522000,-772,712,16700,134,-279,-34
5524000,-772,692,16612,104,-272,17
5526000,-788,812,16744,114,-321,-11
5528000,-752,728,16640,113,-258,-20
5530000,-784,724,16680,111,-287,16
5532000,-744,744,16676,62,-324,-20
5534000,-864,688,16644,128,-306,-18
5536000,-760,784,16608,126,-279,-31
5538000,-784,720,16628,100,-279,-27
5540000,-840,700,16708,119,-294,-30
5542000,-764,736,16628,117,-310,-44
5544000,-804,736,16672,104,-302,-18
5546000,-792,732,16556,124,-301,-10
5548004,-776,684,16604,122,-288,-9
5550000,-792,708,16584,119,-299,-3
5552000,-844,752,16628,105,-284,-4
5554000,-788,704,16620,108,-333,12
5556000,-812,688,16636,108,-285,-21
5558000,-820,728,16556,118,-311,-11
5560000,-728,680,16664,110,-290,-12
5562000,-772,692,16692,136,-286,2
5564000,-788,752,16592,138,-323,-28
5566000,-792,688,16644,104,-268,15
5568000,-820,704,16620,75,-332,-29
5570000,-784,700,16648,130,-272,-19
5572000,-796,740,16696,106,-281,-37
5574000,-756,708,16672,113,-306,8
5576000,-812,728,16588,125,-286,-11
5578000,-788,708,16728,109,-292,-51
5580000,-780,672,16784,111,-300,-11
5582000,-760,664,16640,115,-286,-31
5584000,-776,668,16696,101,-290,-1
5586000,-824,780,16640,79,-266,-6
5588000,-804,732,16700,121,-264,-9
5590000,-760,720,16696,115,-312,-21
5592000,-764,708,16544,123,-298,-15
5594000,-772,708,16516,98,-292,-6
5596000,-784,720,16616,112,-301,-1
5598004,-804,776,16664,113,-287,-18
5600000,-804,728,16572,106,-302,-10
5602000,-824,720,16596,125,-300,-27
5604000,-784,724,16748,121,-307,-11
5606000,-824,736,16728,105,-298,-14
5608000,-828,712,16716,107,-283,-6
5610004,-812,716,16680,164,-313,-1
5612000,-848,684,16532,93,-291,-39
5614000,-788,700,16768,113,-296,-11
5616000,-832,704,16628,105,-326,-4
5618000,-760,748,16548,132,-284,-23
5620000,-764,740,16688,105,-303,-8
5622004,-784,704,16612,121,-265,-32
5624000,-768,720,16692,125,-318,-10
5626000,-792,664,16512,100,-288,-2
5628000,-800,684,16624,134,-267,-23
5630000,-788,724,16792,114,-305,3
5632000,-788,736,16664,120,-273,-17
5634000,-844,728,16692,147,-300,17
5636004,-792,752,16636,117,-267,-7
5638004,-736,688,16680,123,-324,1
5640000,-784,752,16656,117,-302,-6
5642000,-728,764,16680,139,-313,-32
5644000,-800,724,16628,142,-309,-11
5646000,-800,732,16684,138,-290,-20
5648004,-808,772,16656,111,-267,-7
5650000,-740,712,16804,130,-292,-49
5652000,-760,704,16600,94,-300,-19
5654000,-776,708,16732,136,-278,-15
5656000,-740,732,16656,105,-308,-3
5658000,-728,760,16656,121,-287,9
5660000,-760,732,16588,134,-271,14
5662000,-808,736,16796,139,-282,-2
5664000,-788,720,16672,124,-283,-39
5666000,-804,692,16596,119,-307,-34
5668000,-804,724,16544,118,-281,-6
5670000,-796,720,16668,99,-280,6
5672000,-852,704,16636,92,-287,-21
5674000,-804,668,16636,150,-290,-5
5676004,-792,648,16660,126,-275,4
5678000,-764,716,16604,124,-267,-25
5680000,-760,704,16636,118,-309,-45
5682000,-752,712,16704,130,-306,15
5684000,-792,708,16708,129,-276,0
5686000,-756,728,16672,99,-291,-56
5688000,-832,748,16644,119,-259,-30
5690000,-764,748,16600,107,-296,-1
5692000,-680,744,16632,101,-304,-1
5694000,-776,768,16644,100,-283,-12
5696000,-788,684,16560,112,-300,-18
5698000,-800,720,16624,108,-291,-19
5700000,-848,672,16700,126,-287,-44
5702000,-788,700,16652,140,-298,-31
5704000,-816,696,16680,121,-268,-6
5706000,-828,716,16692,111,-312,-14
5708000,-868,772,16628,125,-323,-31
5710000,-828,724,16656,116,-295,-18
5712000,-800,696,16588,132,-312,-20
5714000,-836,700,16668,122,-290,-6
5716000,-812,700,16672,108,-268,-13
5718000,-684,672,16676,126,-297,-15
5720000,-740,656,16652,99,-281,-7
5722000,-832,684,16712,123,-309,-17
5724000,-844,668,16596,118,-302,-27
5726004,-840,712,16684,136,-277,-1
5728000,-856,724,16728,105,-262,-30
5730000,-788,740,16620,114,-340,21
5732000,-800,724,16616,107,-276,-24
5734000,-844,648,16708,116,-288,-8
5736000,-848,692,16616,142,-299,-6
5738004,-752,680,16664,110,-285,-42
5740000,-808,664,16620,98,-297,-34
5742000,-784,704,16620,135,-344,3
5744000,-804,692,16596,122,-295,-41
5746000,-840,696,16576,89,-280,11
5748000,-808,736,16636,108,-304,-14
5750000,-748,724,16668,116,-297,-4
5752000,-764,760,16620,126,-331,-40
5754000,-808,668,16620,116,-324,-50
5756000,-780,784,16716,100,-307,-32
5758000,-784,716,16684,135,-267,24
5760000,-792,700,16580,127,-287,-26
5762000,-748,700,16568,97,-313,-6
5764000,-728,708,16600,123,-277,-24
5766000,-852,708,16648,99,-291,-38
5768000,-804,720,16672,96,-284,-10
5770000,-800,752,16620,83,-266,-41
5772000,-828,724,16616,127,-294,-19
5774000,-812,716,16672,107,-297,-23
5776004,-876,736,16748,92,-308,7
5778000,-792,780,16572,114,-306,-44
5780000,-804,680,16604,124,-274,-40
5782000,-792,744,16676,103,-295,1
5784000,-768,728,16632,91,-308,-12
5786000,-816,732,16688,116,-313,-33
5788000,-796,740,16632,117,-293,16
5790000,-804,668,16580,126,-286,-22
5792000,-812,676,16704,98,-284,-10
5794000,-860,708,16648,119,-312,-42
5796000,-820,640,16592,96,-283,-8
5798000,-792,648,16660,123,-283,4
5800000,-808,684,16728,123,-291,0
5802000,-800,708,16628,125,-265,-8
5804004,-804,644,16692,140,-267,2
5806000,-772,724,16624,117,-311,-17
5808000,-764,688,16700,120,-288,-32
5810000,-748,736,16680,110,-287,-26
5812000,-708,732,16700,137,-261,-21
5814000,-820,692,16676,123,-275,-4
5816000,-820,668,16800,118,-282,-36
5818000,-812,768,16596,150,-257,-13
5820000,-776,712,16548,102,-277,0
5822000,-856,756,16648,120,-288,-14
5824000,-792,744,16740,145,-302,-51
5826000,-792,708,16684,117,-307,-13
5828000,-780,712,16604,153,-254,-13
5830000,-800,648,16608,83,-274,-7
5832000,-820,708,16644,153,-312,-27
5834000,-764,696,16592,147,-274,-6
5836000,-764,720,16652,88,-278,-14
5838000,-756,700,16664,124,-251,-9
5840000,-836,688,16672,128,-306,-45
5842000,-744,696,16656,126,-341,0
5844000,-756,672,16596,114,-280,-4
5846000,-752,716,16640,109,-316,-15
5848000,-780,724,16636,137,-261,-29
5850000,-852,700,16764,103,-248,-19
5852000,-764,704,16528,95,-288,-13
5854000,-772,660,16644,112,-296,-3
5856000,-764,728,16768,116,-284,-23
5858000,-740,756,16772,120,-284,17
5860000,-800,688,16652,92,-308,-42
5862000,-820,756,16652,85,-317,-30
5864000,-816,736,16696,92,-306,-22
5866004,-816,656,16732,108,-309,-18
5868000,-844,768,16644,85,-300,-8
5870000,-796,660,16688,109,-250,-30
5872000,-756,668,16604,120,-282,-8
5874000,-784,700,16632,113,-267,-34
5876000,-796,724,16668,92,-319,-13
5878000,-788,764,16680,117,-309,-10
5880000,-784,784,16640,132,-316,1
5882000,-852,680,16600,140,-304,-15
5884000,-772,712,16592,112,-294,-23
5886000,-780,760,16496,95,-284,7
5888000,-792,760,16628,126,-331,17
5890000,-812,712,16664,100,-313,-28
5892000,-804,736,16600,99,-310,-15
5894000,-804,720,16576,108,-297,-2
5896000,-772,688,16588,112,-258,-19
5898000,-836,624,16716,109,-315,0
5900000,-732,744,16592,118,-279,-17
5902000,-764,764,16596,123,-262,-10
5904004,-784,728,16628,125,-294,-30
5906000,-876,716,16712,120,-286,-18
5908000,-856,708,16696,125,-305,-9
5910000,-796,724,16720,133,-270,-19
5912000,-800,696,16732,109,-274,-5
5914000,-808,692,16600,139,-284,-15
5916000,-776,756,16636,113,-323,-1
5918000,-828,664,16588,92,-311,0
5920000,-756,680,16556,104,-278,-54
5922000,-784,648,16552,104,-309,-5
5924000,-780,736,16608,107,-296,-24
5926000,-792,768,16680,118,-271,-8
5928000,-776,692,16664,139,-294,-9
5930000,-824,744,16680,112,-302,-14
5932004,-828,744,16608,118,-292,-26
5934000,-772,696,16684,122,-278,-1
5936000,-724,588,16640,128,-283,-22
5938000,-800,676,16700,123,-287,-1
5940000,-796,680,16700,74,-304,24
5942000,-796,716,16624,102,-303,-38
5944000,-752,776,16592,84,-342,-28
5946000,-780,740,16592,114,-261,-3
5948000,-828,708,16712,100,-290,-8
5950000,-792,712,16676,121,-277,16
5952000,-800,704,16620,129,-294,1
5954000,-776,688,16564,87,-281,-30
5956000,-748,732,16640,121,-310,-1
5958000,-820,716,16624,104,-280,-38
5960000,-772,736,16580,118,-278,-36
5962000,-788,660,16636,125,-302,-1
5964000,-784,724,16648,128,-265,-42
5966000,-860,748,16628,88,-312,-22
5968000,-840,728,16620,107,-292,-37
5970000,-872,756,16580,103,-295,-19
5972000,-796,736,16676,119,-297,-16
5974000,-812,756,16684,105,-295,-6
5976000,-752,712,16616,110,-325,-15
5978000,-804,656,16700,124,-286,-27
5980000,-780,760,16616,133,-289,-31
5982004,-792,664,16560,119,-320,17
5984000,-840,660,16624,140,-282,-29
5986000,-804,688,16696,126,-277,-22
5988000,-764,704,16604,79,-289,-4
5990000,-812,744,16636,148,-269,-25
5992000,-780,740,16680,88,-294,-4
5994004,-720,756,16584,142,-325,-37
5996000,-688,724,16668,132,-310,-33
5998000,-844,704,16744,113,-290,-13
6000000,-720,704,16652,131,-262,-10
6002000,-840,692,16672,67,-287,-35
6004000,-796,748,16660,117,-313,-11
6006004,-808,712,16732,108,-307,-13
6008000,-792,720,16604,124,-318,10
6010000,-772,744,16624,120,-291,-19
6012000,-764,716,16520,111,-295,-38
6014000,-752,760,16644,140,-290,-3
6016000,-792,768,16564,135,-271,-18
6018000,-796,748,16692,133,-299,-28
6020004,-812,752,16612,117,-270,-29
6022000,-844,668,16620,96,-312,-8
6024000,-768,704,16672,88,-292,-10
6026000,-820,732,16576,116,-262,-29
6028000,-836,700,16728,88,-284,7
6030000,-836,704,16644,112,-274,-6
6032000,-788,712,16540,110,-294,-3
6034000,-780,672,16556,106,-287,7
6036000,-840,748,16648,119,-285,-16
6038000,-752,752,16636,109,-309,-2
6040000,-784,688,16664,105,-284,-13
6042000,-808,732,16716,161,-284,-3
6044000,-804,744,16668,101,-262,-12
6046000,-872,728,16684,126,-275,6
6048000,-796,680,16736,111,-302,-23
6050000,-748,684,16576,139,-293,-4
6052000,-788,740,16736,103,-300,-38
6054000,-784,744,16660,102,-316,-30
6056000,-780,656,16628,99,-276,2
6058000,-808,660,16672,118,-281,-26
6060000,-808,748,16656,107,-302,-24
6062000,-808,696,16656,70,-290,-16
6064000,-828,760,16820,131,-306,11
6066000,-784,748,16628,127,-280,-33
6068000,-800,748,16612,122,-269,-24
6070000,-828,720,16752,122,-288,11
6072000,-820,796,16604,137,-276,-36
6074000,-832,708,16720,98,-293,-50
6076000,-796,752,16668,130,-291,-51
6078000,-792,712,16604,94,-324,-14
6080000,-792,676,16628,108,-299,-22
6082000,-828,628,16596,112,-302,-39
6084000,-808,740,16604,94,-308,-27
6086000,-816,764,16656,127,-289,6
6088000,-716,764,16660,104,-251,-23
6090000,-804,772,16672,124,-294,-11
6092000,-808,748,16612,114,-299,-3
6094000,-780,728,16652,108,-315,-43
6096000,-788,732,16636,99,-294,-21
6098000,-788,724,16624,96,-264,-22
6100000,-780,712,16728,118,-273,-47
6102000,-784,764,16752,111,-341,-45
6104000,-860,724,16608,112,-288,-13
6106000,-796,692,16636,92,-266,-6
6108000,-784,716,16676,100,-279,-43
6110000,-788,736,16648,102,-337,10
6112000,-744,752,16680,122,-273,-20
6114000,-784,648,16620,119,-263,-9
6116004,-856,704,16720,91,-286,-18
6118000,-780,736,16548,109,-258,-38
6120000,-764,728,16612,110,-275,8
6122004,-792,768,16684,99,-309,-21
6124000,-776,756,16532,128,-299,9
6126000,-752,708,16676,112,-287,-18
6128000,-764,756,16652,95,-329,-4
6130000,-788,700,16652,108,-304,-8
6132000,-712,696,16664,113,-289,-27
6134000,-840,708,16592,154,-317,-46
6136000,-796,732,16560,135,-264,-23
6138000,-816,692,16636,85,-250,12
6140000,-764,684,16628,118,-308,-28
6142000,-756,748,16708,133,-296,-43
6144000,-824,724,16616,83,-292,-21
6146000,-784,724,16552,112,-276,-10
6148000,-856,724,16692,147,-289,-1
6150000,-848,672,16660,102,-265,-18
6152000,-812,720,16572,121,-288,-25
6154000,-788,700,16632,164,-332,-39
6156000,-784,668,16620,78,-312,-24
6158000,-764,664,16580,85,-242,-56
6160000,-784,724,16684,162,-278,-55
6162000,-752,740,16652,97,-315,-21
6164000,-796,728,16712,144,-288,-7
6166000,-780,676,16628,85,-287,-28
6168000,-804,752,16640,101,-313,-1
6170000,-856,728,16696,121,-293,-26
6172000,-804,660,16644,99,-292,-13
6174000,-820,712,16640,113,-272,-32
6176000,-816,764,16584,110,-289,-14
6178000,-840,744,16556,76,-284,-18
6180000,-740,736,16652,102,-290,12
6182000,-760,712,16616,102,-293,-9
6184000,-876,716,16548,101,-285,-31
6186000,-772,684,16656,109,-324,8
6188000,-788,788,16620,88,-282,26
6190000,-748,752,16612,127,-306,-29
6192000,-844,688,16648,153,-305,-12
6194000,-804,700,16608,88,-317,28
6196000,-828,732,16572,111,-289,-38
6198000,-788,704,16712,102,-300,-19
6200000,-816,756,16604,141,-316,-40
6202000,-856,732,16712,142,-278,0
6204000,-824,724,16740,114,-272,-14
6206000,-748,688,16688,133,-278,-25
6208000,-796,660,16588,116,-304,-8
6210000,-776,716,16644,89,-287,-11
6212000,-816,744,16652,152,-276,12
6214000,-824,720,16576,77,-320,-39
6216000,-744,688,16572,124,-273,-28
6218000,-732,684,16576,138,-311,-16
6220000,-756,668,16612,119,-319,-18
6222000,-816,672,16572,110,-325,-20
6224004,-760,712,16684,98,-251,-8
6226000,-836,712,16624,113,-281,-23
6228000,-820,752,16724,149,-304,-21
6230000,-828,692,16708,97,-297,-60
6232000,-776,644,16608,98,-291,14
6234000,-768,700,16756,126,-279,-32
6236000,-784,672,16648,101,-288,-5
6238000,-788,692,16668,149,-288,-6
6240000,-796,764,16600,111,-281,-35
6242000,-760,712,16664,125,-305,4
6244004,-724,648,16660,113,-322,4
6246000,-792,648,16704,141,-301,-17
6248000,-828,724,16692,134,-314,8
6250004,-772,708,16716,89,-282,-18
6252000,-828,700,16588,111,-300,0
6254000,-796,652,16692,150,-296,-3
6256000,-792,740,16524,99,-290,-13
6258000,-772,716,16604,120,-284,6
6260000,-816,748,16564,121,-295,-23
6262000,-768,764,16628,134,-310,-5
6264000,-792,728,16704,118,-298,-23
6266000,-768,724,16576,120,-292,-28
6268000,-752,712,16656,117,-317,-28
6270000,-824,708,16612,139,-272,-50
6272000,-776,700,16760,84,-269,-28
6274000,-768,752,16736,137,-313,-40
6276000,-744,704,16676,113,-270,-2
6278000,-756,708,16532,99,-282,-39
6280000,-784,760,16616,108,-291,-42
6282000,-804,692,16788,108,-283,-4
6284000,-784,656,16716,97,-289,-40
6286000,-792,756,16596,133,-279,-15
6288000,-800,772,16600,123,-315,-12
6290000,-784,716,16644,104,-302,-22
6292000,-780,696,16716,93,-315,-39
6294000,-812,696,16600,121,-275,-18
6296000,-728,748,16600,109,-297,-50
6298000,-764,664,16636,87,-281,-22
6300000,-800,708,16576,114,-318,-16
6302000,-816,776,16664,122,-289,-4
6304000,-844,664,16584,120,-322,-26
6306000,-784,736,16684,116,-327,-20
6308000,-804,712,16596,129,-292,-18
6310000,-788,652,16656,89,-273,-2
6312000,-828,720,16612,106,-291,-22
6314000,-756,712,16588,113,-250,-16
6316004,-784,716,16732,87,-302,18
6318000,-820,696,16672,82,-281,-10
6320000,-812,740,16636,153,-314,2
6322000,-764,708,16572,123,-305,-7
6324000,-808,712,16672,119,-309,-26
6326000,-840,752,16632,123,-311,-32
6328000,-724,740,16484,94,-264,-3
6330000,-780,752,16680,100,-317,-20
6332000,-812,684,16668,122,-276,-16
6334000,-844,692,16688,81,-302,-37
6336000,-740,684,16584,125,-315,-29
6338000,-736,708,16700,129,-289,-36
6340000,-836,728,16692,124,-279,-11
6342000,-768,736,16504,116,-296,-5
6344000,-800,672,16672,120,-275,-28
6346000,-828,744,16640,147,-299,-23
6348000,-752,724,16668,113,-291,10
6350000,-768,744,16604,122,-283,-10
6352000,-748,792,16712,107,-301,-18
6354000,-752,708,16652,115,-310,-18
6356000,-836,712,16612,122,-314,-1
6358000,-792,776,16708,113,-285,-54
6360000,-788,660,16620,134,-304,-13
6362000,-832,696,16700,88,-276,-21
6364000,-816,696,16752,129,-309,4
6366004,-820,696,16652,92,-297,-25
6368000,-772,692,16620,95,-281,-12
6370000,-808,704,16632,161,-270,-65
6372000,-740,704,16628,94,-293,-11
6374000,-760,760,16716,90,-292,-20
6376000,-768,720,16572,108,-282,22
6378004,-740,748,16696,142,-292,-27
6380000,-792,704,16588,107,-312,-30
6382000,-728,692,16612,112,-271,-10
6384000,-752,696,16660,112,-280,-20
6386004,-780,720,16592,111,-288,-24
6388000,-812,688,16552,105,-274,-11
6390004,-744,728,16648,136,-291,-42
6392000,-800,728,16668,96,-294,10
6394000,-756,724,16644,121,-307,-34
6396000,-756,704,16636,91,-298,-23
6398000,-780,716,16660,110,-307,-25
6400000,-748,744,16672,119,-291,-15
6402000,-740,664,16576,86,-271,-34
6404004,-784,692,16612,89,-293,-24
6406004,-832,808,16568,126,-304,-17
6408000,-764,672,16732,95,-303,-14
6410000,-812,732,16620,126,-315,22
6412000,-784,688,16616,125,-256,-43
6414000,-820,708,16692,143,-303,-22
6416000,-860,788,16552,115,-280,-14
6418000,-768,696,16620,96,-261,-41
6420000,-828,716,16680,126,-298,-13
6422000,-808,696,16688,136,-300,-43
6424000,-816,696,16564,102,-288,-29
6426000,-764,700,16584,123,-290,-46
6428000,-792,748,16636,92,-275,-14
6430000,-764,648,16576,117,-304,-27
6432000,-776,796,16632,117,-283,5
6434000,-744,728,16640,137,-285,-14
6436000,-808,728,16604,92,-310,-15
6438000,-832,760,16652,120,-303,-22
6440000,-792,752,16640,156,-299,-15
6442000,-780,792,16580,144,-280,11
6444000,-828,740,16636,102,-296,-41
6446000,-876,688,16648,110,-299,-26
6448000,-808,752,16740,95,-307,10
6450000,-820,716,16736,90,-280,-91
6452000,-828,760,16620,129,-251,-25
6454000,-844,696,16600,107,-282,-14
6456000,-780,668,16668,110,-266,-10
6458000,-812,724,16620,153,-294,-8
6460000,-808,648,16632,107,-268,-14
6462000,-796,744,16588,128,-257,-26
6464000,-768,688,16692,91,-299,3
6466000,-724,668,16588,118,-304,-22
6468000,-792,700,16616,125,-290,-21
6470000,-780,712,16652,111,-291,-36
6472000,-840,664,16684,89,-311,-13
6474000,-772,752,16692,139,-276,-17
6476000,-764,724,16612,112,-291,-9
6478000,-808,724,16636,89,-286,-44
6480004,-732,672,16648,97,-315,-14
6482000,-772,748,16608,112,-292,0
6484000,-716,712,16524,120,-305,-27
6486000,-796,712,16624,93,-284,-32
6488000,-796,676,16716,136,-289,-16
6490000,-800,712,16672,113,-321,-5
6492000,-780,744,16716,117,-311,-24
6494000,-844,708,16616,90,-324,-1
6496000,-748,788,16588,65,-305,-16
6498000,-784,780,16700,119,-285,-30
6500004,-820,712,16692,149,-275,-14
6502000,-748,776,16632,96,-309,-15
6504000,-788,668,16588,103,-292,-26
6506004,-792,716,16648,127,-309,-18
6508000,-780,784,16660,132,-298,-43
6510000,-796,720,16512,139,-276,-11
6512000,-756,728,16680,92,-305,-12
6514000,-760,716,16692,124,-294,-46
6516000,-804,732,16612,118,-295,5
6518000,-708,668,16620,132,-287,-17
6520000,-776,672,16680,142,-322,-43
6522000,-752,700,16584,103,-290,-23
6524000,-816,696,16752,137,-281,-17
6526000,-792,776,16732,131,-299,21
6528000,-808,744,16576,104,-287,-16
6530000,-792,724,16564,91,-326,21
6532000,-792,784,16560,134,-271,10
6534000,-736,668,16700,114,-283,-8
6536000,-792,704,16580,90,-296,-1
6538000,-832,688,16720,166,-289,-10
6540004,-724,744,16580,122,-282,-13
6542000,-788,708,16684,113,-286,11
6544000,-752,780,16600,138,-271,-9
6546000,-748,748,16704,116,-306,-12
6548000,-784,628,16612,130,-259,-95
6550000,-792,728,16676,130,-294,-25
6552000,-828,704,16764,98,-271,8
6554000,-796,676,16540,126,-304,7
6556000,-800,708,16680,102,-300,-23
6558000,-820,744,16692,104,-251,-18
6560000,-768,728,16552,126,-308,-12
6562000,-832,732,16744,112,-312,-40
6564000,-792,792,16640,156,-296,-34
6566000,-784,744,16652,91,-274,-7
6568000,-804,712,16584,135,-271,-32
6570000,-864,732,16652,128,-264,-8
6572000,-832,704,16664,129,-278,11
6574000,-792,752,16676,97,-289,3
6576000,-812,708,16684,121,-318,-36
6578000,-856,740,16612,103,-303,-30
6580000,-828,724,16640,100,-280,-23
6582000,-800,736,16668,112,-271,-4
6584000,-856,716,16704,110,-309,-6
6586000,-776,748,16556,130,-307,-15
6588000,-760,752,16652,96,-304,-26
6590000,-784,676,16580,126,-300,-2
6592000,-780,764,16524,115,-287,-29
6594000,-764,684,16628,129,-297,-17
6596000,-732,752,16672,105,-317,-5
6598000,-752,712,16736,102,-280,-12
6600000,-772,672,16648,106,-271,-7
6602000,-756,660,16700,128,-277,-16
6604000,-780,728,16696,101,-316,-24
6606000,-816,720,16604,83,-287,-53
6608004,-824,688,16588,151,-288,5
6610000,-772,704,16708,115,-278,-9
6612000,-760,668,16676,90,-317,-23
6614000,-816,688,16604,120,-314,-24
6616000,-812,712,16592,126,-306,-11
6618000,-812,684,16644,112,-310,13
6620000,-812,728,16736,105,-284,-10
6622000,-804,752,16588,119,-281,-17
6624000,-804,748,16716,150,-297,-34
6626000,-812,700,16632,108,-294,9
6628004,-804,696,16588,124,-283,-25
6630000,-812,768,16740,122,-313,-17
6632000,-756,580,16608,99,-319,-51
