micros,ax,ay,az,gx,gy,gz
0,-956,712,16632,111,-298,-7
2004,-956,700,16656,108,-285,-11
4000,-868,736,16600,142,-292,-7
6000,-848,736,16544,102,-297,-39
8000,-916,716,16620,113,-300,-14
10000,-884,736,16644,112,-298,-25
12000,-924,748,16608,142,-251,-29
14000,-900,692,16636,109,-307,-12
16000,-912,688,16668,110,-285,-20
18000,-956,740,16696,104,-302,-17
20000,-908,740,16752,142,-280,-11
22000,-948,760,16716,105,-306,-1
24000,-948,708,16732,143,-280,-25
26000,-872,692,16644,151,-279,-31
28000,-872,692,16648,110,-305,-30
30000,-940,772,16588,104,-312,-8
32000,-900,712,16664,126,-287,-59
34000,-888,656,16472,82,-318,-14
36000,-952,664,16620,126,-314,-30
38000,-940,684,16580,148,-308,-28
40000,-928,680,16604,124,-267,-59
42000,-952,688,16652,95,-287,-41
44000,-956,652,16704,111,-303,-43
46000,-940,668,16708,122,-293,-11
48000,-976,660,16720,104,-294,-16
50000,-1004,692,16636,131,-259,-21
52000,-916,688,16580,127,-289,-18
54000,-952,676,16660,126,-292,-16
56004,-988,732,16612,137,-286,-37
58000,-888,644,16612,116,-312,-34
60004,-900,700,16664,123,-281,-29
62000,-896,648,16720,117,-280,-22
64000,-892,644,16568,122,-307,-28
66000,-912,712,16696,126,-292,-12
68000,-904,696,16664,105,-273,-23
70000,-948,680,16744,83,-275,-18
72000,-920,652,16616,133,-291,-32
74004,-956,664,16604,113,-318,-25
76000,-880,668,16688,113,-261,-13
78000,-952,640,16708,118,-293,-7
80004,-948,752,16692,100,-321,-26
82000,-936,692,16612,121,-244,-27
84000,-904,676,16716,112,-269,-15
86000,-952,668,16640,128,-300,-9
88000,-944,716,16600,155,-292,-24
90004,-960,668,16692,103,-272,-1
92000,-956,708,16656,126,-301,-33
94000,-952,688,16796,119,-292,3
96000,-940,720,16700,106,-286,-30
98000,-900,680,16676,130,-289,-51
100000,-868,720,16632,121,-302,-26
102000,-940,732,16652,130,-303,-28
104000,-952,716,16644,162,-278,26
106000,-892,692,16768,94,-287,-6
108000,-940,768,16644,120,-281,-21
110000,-916,712,16640,111,-314,6
112000,-916,676,16552,100,-296,-9
114000,-896,704,16660,91,-264,-30
116000,-900,720,16580,116,-259,-11
118008,-924,764,16744,133,-303,-28
120004,-856,640,16700,120,-287,-35
122000,-880,676,16636,124,-283,-28
124004,-944,736,16612,114,-312,-11
126000,-956,724,16652,134,-298,-45
128000,-944,716,16620,174,-278,23
130000,-916,676,16552,117,-285,-14
132000,-940,700,16636,88,-295,-11
134000,-896,704,16576,124,-277,-23
136000,-920,692,16704,71,-317,1
138004,-956,684,16680,114,-310,-14
140000,-980,704,16680,108,-287,-19
142000,-888,728,16696,122,-268,-7
144000,-836,684,16644,125,-283,-18
146000,-952,752,16704,130,-283,-16
148000,-872,720,16708,125,-285,-42
150000,-948,708,16676,115,-308,-11
152000,-876,736,16568,112,-285,-49
154004,-936,708,16612,100,-309,-26
156000,-964,716,16628,154,-288,2
158000,-924,696,16596,147,-281,-37
160000,-924,696,16600,115,-297,-23
162000,-984,684,16588,100,-265,-4
164000,-868,704,16700,129,-295,-29
166000,-1004,724,16712,103,-296,-11
168000,-888,720,16548,116,-281,-25
170000,-904,704,16708,136,-276,-8
172000,-984,712,16588,129,-279,-14
174000,-920,692,16648,116,-258,-23
176000,-936,752,16704,103,-309,-52
178004,-904,684,16624,105,-299,-24
180000,-936,676,16628,92,-297,-26
182000,-996,632,16680,111,-291,-25
184000,-924,720,16664,122,-318,-12
186004,-924,724,16624,109,-290,-4
188000,-896,736,16636,116,-289,-16
190000,-864,696,16596,110,-284,-11
192000,-904,692,16616,105,-299,-38
194000,-896,752,16688,93,-288,-37
196000,-944,676,16752,100,-287,-2
198000,-988,712,16672,124,-327,19
200000,-912,748,16700,138,-292,-3
202000,-864,648,16620,117,-291,-42
204000,-924,728,16748,118,-293,-26
206000,-944,744,16656,103,-300,-11
208004,-944,620,16576,110,-258,-22
210000,-908,696,16660,101,-282,-9
212000,-916,764,16656,133,-296,-20
214000,-972,636,16644,124,-271,-10
216000,-888,620,16588,85,-289,-30
218000,-928,692,16560,111,-271,-15
220000,-868,652,16732,124,-284,-30
222000,-924,712,16648,106,-282,-24
224000,-892,664,16628,114,-287,-25
226000,-944,696,16700,131,-303,3
228000,-904,668,16608,133,-292,-2
230000,-984,760,16732,140,-272,-44
232000,-1020,684,16704,106,-302,-39
234000,-936,624,16656,106,-272,-17
236000,-944,688,16672,106,-251,-47
238000,-884,720,16604,141,-312,-37
240000,-880,692,16696,117,-293,-6
242004,-940,672,16580,110,-318,-34
244000,-888,708,16664,105,-277,-16
246004,-948,652,16688,106,-281,-33
248000,-900,652,16636,114,-310,-31
250000,-932,748,16676,122,-284,18
252000,-944,704,16660,98,-306,-19
254000,-824,732,16668,76,-286,-7
256000,-900,724,16604,161,-316,-9
258000,-980,644,16728,119,-264,-20
260000,-884,716,16608,115,-301,-20
262000,-972,664,16648,135,-288,-6
264000,-968,716,16628,98,-307,0
266000,-956,692,16724,98,-274,-8
268000,-928,720,16748,119,-294,-10
270000,-896,688,16604,121,-293,-16
272000,-880,648,16592,120,-303,-16
274000,-900,700,16644,112,-250,-38
276000,-916,628,16564,130,-283,-31
278000,-904,684,16612,123,-294,-4
280000,-932,728,16596,136,-297,-30
282000,-912,724,16696,128,-288,11
284000,-952,708,16648,134,-299,-46
286000,-884,688,16704,106,-268,-72
288000,-936,688,16588,94,-300,-20
290000,-924,784,16660,150,-293,3
292000,-1008,704,16632,117,-295,-19
294000,-972,708,16716,137,-284,-26
296000,-892,724,16604,113,-295,-24
298000,-928,724,16600,116,-282,-7
300000,-932,700,16744,137,-284,-38
302000,-948,712,16712,79,-272,-35
304000,-936,736,16596,109,-283,-42
306000,-960,716,16664,151,-303,-21
308000,-896,732,16736,144,-303,-58
310000,-908,644,16732,85,-291,-9
312004,-936,712,16656,115,-306,5
314000,-888,680,16744,141,-299,26
316004,-940,676,16712,124,-286,-34
318000,-884,704,16756,110,-285,-56
320000,-928,716,16616,100,-278,-15
322000,-956,768,16628,94,-282,4
324000,-936,712,16560,141,-293,-65
326000,-928,644,16596,106,-301,-16
328000,-916,672,16668,136,-263,-3
330004,-932,692,16528,129,-243,-32
332000,-924,792,16588,138,-295,-17
334000,-860,684,16588,104,-282,-43
336004,-924,740,16628,97,-263,-12
338000,-968,732,16640,105,-301,7
340000,-916,720,16604,126,-290,-19
342000,-880,708,16656,136,-298,13
344000,-892,720,16652,102,-300,-40
346004,-904,704,16720,85,-297,-37
348000,-940,720,16680,116,-289,-6
350000,-952,756,16616,153,-267,-19
352000,-912,688,16624,133,-316,-9
354000,-872,692,16720,104,-310,8
356000,-924,652,16656,126,-293,-37
358000,-944,672,16564,120,-272,4
360000,-908,720,16612,121,-281,-18
362000,-968,692,16600,113,-276,-37
364000,-888,692,16656,111,-296,-6
366000,-892,684,16652,99,-296,-4
368000,-912,768,16632,113,-282,-18
370000,-848,724,16648,130,-302,-7
372000,-916,700,16696,121,-304,-5
374008,-920,728,16560,112,-317,-26
376000,-912,652,16640,120,-280,-14
378000,-856,704,16624,87,-299,-25
380000,-904,744,16612,114,-296,-28
382000,-872,688,16692,118,-274,-5
384000,-1004,696,16716,90,-277,-31
386000,-956,672,16720,102,-274,-17
388000,-900,624,16612,129,-308,-37
390000,-952,688,16644,141,-304,-44
392000,-968,732,16680,107,-292,-16
394004,-936,716,16608,125,-277,-10
396000,-956,680,16692,118,-291,-31
398000,-940,660,16584,118,-292,-19
400000,-972,732,16696,133,-296,-11
402000,-924,728,16672,128,-285,-47
404000,-996,692,16820,89,-306,-5
406000,-920,704,16780,105,-280,-3
408000,-952,672,16632,134,-304,-15
410004,-928,720,16756,110,-304,-24
412000,-940,608,16552,113,-265,-42
414000,-920,696,16688,146,-280,4
416000,-936,716,16664,99,-270,-20
418000,-912,736,16652,110,-275,-32
420000,-928,644,16672,132,-302,7
422000,-932,712,16636,123,-319,8
424000,-908,748,16672,115,-279,-29
426000,-984,660,16620,100,-285,-9
428000,-952,744,16620,145,-305,-29
430000,-916,700,16696,111,-339,-45
432000,-868,676,16596,103,-334,-23
434000,-884,724,16652,116,-311,-15
436000,-880,716,16608,121,-288,-23
438000,-892,696,16672,97,-317,-29
440004,-908,668,16616,144,-293,-37
442004,-876,720,16692,133,-325,-6
444004,-860,744,16636,129,-282,-45
446000,-840,720,16676,107,-267,-4
448000,-904,684,16576,94,-307,-40
450004,-924,708,16780,101,-326,-8
452000,-932,708,16716,125,-272,-45
454000,-972,700,16640,114,-314,3
456000,-924,692,16652,100,-314,-6
458004,-916,680,16692,124,-291,-12
460000,-900,728,16668,121,-298,-14
462000,-880,692,16672,101,-307,-22
464004,-920,748,16652,120,-310,-16
466000,-952,688,16728,114,-281,-7
468000,-960,680,16668,115,-294,15
470000,-892,724,16784,127,-308,5
472000,-972,616,16704,88,-289,-15
474000,-924,676,16640,110,-286,-27
476000,-892,704,16608,112,-308,4
478000,-944,780,16572,130,-260,-29
480000,-888,744,16596,114,-285,-24
482000,-856,736,16576,122,-286,-44
484000,-936,716,16672,145,-287,16
486000,-912,752,16636,123,-269,-6
488000,-920,740,16688,131,-295,-15
490000,-908,744,16620,121,-287,-32
492000,-896,668,16680,124,-274,1
494000,-932,740,16664,127,-279,11
496000,-916,688,16600,119,-312,-38
498000,-948,684,16688,65,-280,-33
500000,-916,764,16752,141,-280,-16
502004,-940,696,16656,141,-281,-8
504000,-960,728,16772,109,-322,1
506000,-932,676,16692,139,-278,-40
508000,-852,708,16624,125,-310,-44
510000,-876,688,16780,123,-279,-36
512000,-876,664,16592,111,-298,19
514000,-904,720,16616,103,-307,-8
516000,-912,700,16724,135,-302,-14
518000,-952,708,16672,120,-294,-42
520000,-844,688,16672,121,-286,-2
522000,-916,696,16676,148,-269,-8
524000,-948,624,16580,144,-297,-21
526000,-972,636,16708,108,-267,-15
528000,-888,628,16648,112,-287,-15
530000,-948,632,16764,114,-294,-52
532000,-952,708,16624,126,-307,-62
534000,-940,724,16624,101,-282,3
536000,-896,712,16684,147,-282,-50
538004,-944,688,16732,63,-272,-31
540000,-908,680,16616,107,-323,-26
542000,-972,704,16748,109,-295,-31
544000,-912,676,16664,116,-301,-32
546000,-932,644,16752,135,-302,-6
548000,-976,700,16768,97,-270,-10
550000,-956,692,16680,134,-275,-18
552000,-896,708,16608,132,-324,-12
554000,-820,644,16588,116,-283,-23
556000,-912,672,16676,111,-294,-33
558000,-904,672,16660,129,-311,-8
560000,-896,716,16636,128,-300,-48
562000,-940,744,16624,118,-272,-13
564000,-888,700,16676,148,-279,-54
566000,-880,724,16700,127,-293,-23
568000,-944,712,16704,130,-275,-13
570000,-884,704,16700,136,-293,-31
572004,-904,688,16636,127,-266,-31
574000,-940,692,16652,117,-288,-13
576000,-920,708,16612,133,-313,-37
578000,-956,652,16652,107,-266,-24
580000,-888,776,16816,87,-287,2
582000,-900,732,16604,103,-307,-11
584000,-864,732,16680,103,-264,-22
586000,-940,712,16636,111,-289,-10
588000,-892,680,16608,125,-280,-4
590004,-868,716,16656,105,-297,-17
592000,-984,692,16588,118,-317,-16
594000,-944,728,16708,112,-273,-18
596000,-936,736,16620,103,-277,-27
598000,-944,680,16712,118,-320,4
600000,-952,696,16616,134,-272,-28
602000,-928,652,16624,92,-264,-43
604000,-916,696,16648,116,-309,-43
606000,-892,632,16776,142,-304,-19
608000,-912,708,16652,111,-271,-21
610000,-900,640,16648,126,-308,-39
612000,-892,764,16656,98,-286,10
614000,-952,748,16684,116,-273,-11
616000,-920,740,16648,115,-260,-25
618000,-904,684,16656,141,-313,-11
620000,-932,720,16576,125,-254,-19
622000,-916,736,16660,117,-298,-19
624000,-896,728,16692,124,-320,-25
626004,-952,720,16684,107,-300,-40
628000,-900,712,16572,111,-303,7
630008,-920,712,16724,107,-302,-18
632000,-896,652,16696,109,-280,-17
634000,-952,732,16700,128,-307,-11
636000,-976,700,16692,111,-290,-27
638000,-888,688,16600,110,-275,-11
640000,-924,724,16740,121,-316,-13
642000,-852,720,16664,113,-289,-9
644000,-900,692,16624,135,-293,-48
646000,-872,744,16696,114,-299,-9
648000,-916,720,16636,139,-305,-27
650004,-852,660,16560,124,-317,-6
652000,-912,640,16720,86,-289,-36
654000,-896,664,16616,124,-291,-10
656000,-984,684,16672,111,-283,-13
658000,-880,700,16760,129,-274,-2
660000,-948,688,16668,115,-281,-33
662000,-880,692,16684,101,-295,14
664000,-952,736,16580,99,-272,10
666000,-896,712,16596,127,-323,-26
668000,-984,672,16516,133,-322,-3
670000,-952,736,16640,116,-264,-33
672000,-884,760,16692,80,-313,-28
674000,-960,620,16724,132,-292,-23
676000,-960,720,16708,95,-303,-25
678000,-964,724,16608,118,-297,-11
680000,-908,736,16604,125,-275,-38
682000,-884,692,16672,114,-283,-7
684000,-876,656,16676,131,-304,-15
686000,-876,700,16612,114,-311,-24
688000,-972,748,16616,102,-268,-6
690000,-940,756,16608,99,-278,29
692000,-968,692,16584,101,-264,-25
694000,-896,668,16636,119,-278,-25
696000,-916,608,16676,159,-293,-18
698000,-940,712,16624,126,-288,-8
700004,-944,700,16616,123,-303,-43
702000,-940,656,16576,90,-347,-23
704000,-896,688,16720,120,-305,-18
706000,-956,768,16644,115,-260,-10
708000,-888,692,16600,155,-265,-40
710000,-956,692,16692,102,-318,-12
712000,-896,684,16712,112,-286,-27
714000,-896,660,16608,104,-305,-42
716000,-896,700,16752,101,-274,-35
718004,-892,656,16660,118,-299,-11
720000,-960,724,16732,121,-328,-33
722000,-904,684,16660,141,-297,-2
724000,-896,736,16656,59,-297,-14
726000,-960,684,16580,122,-285,8
728000,-960,736,16580,91,-299,-65
730000,-932,624,16688,115,-292,-8
732000,-912,720,16736,148,-311,-39
734000,-948,652,16620,99,-320,-40
736000,-984,636,16644,153,-280,-16
738000,-932,688,16704,124,-249,-47
740000,-932,676,16700,120,-311,-12
742000,-916,676,16552,93,-281,-22
744000,-928,664,16656,114,-296,-16
746000,-980,716,16520,115,-330,-27
748000,-936,656,16688,125,-289,-11
750000,-904,748,16692,93,-297,-43
752000,-884,808,16648,115,-300,-32
754004,-864,704,16716,122,-273,-10
756000,-912,692,16668,123,-305,-16
758004,-920,700,16656,88,-314,-13
760000,-956,684,16712,129,-270,-40
762000,-924,684,16672,105,-275,-35
764000,-916,696,16628,98,-276,-5
766000,-900,672,16672,157,-294,-10
768000,-956,684,16664,86,-336,-2
770000,-896,672,16732,117,-298,-26
772000,-940,688,16732,121,-290,-34
774000,-972,704,16708,92,-296,20
776000,-908,728,16600,125,-281,-21
778000,-900,636,16648,122,-293,17
780000,-972,684,16640,136,-286,-33
782000,-908,676,16600,105,-316,-51
784000,-936,720,16668,121,-284,-37
786000,-924,684,16664,111,-280,-4
788000,-880,712,16684,106,-294,-27
790000,-884,728,16660,107,-298,-9
792000,-928,712,16808,118,-299,-11
794004,-904,716,16672,97,-296,-13
796000,-912,688,16744,122,-282,-48
798000,-936,736,16664,129,-317,-8
800000,-984,756,16796,150,-293,-38
802000,-940,668,16716,122,-296,-67
804000,-976,740,16716,116,-304,-22
806000,-880,716,16768,110,-302,-19
808000,-912,684,16736,99,-275,-3
810000,-904,692,16620,111,-268,-9
812000,-904,684,16692,127,-304,-25
814000,-936,676,16632,118,-293,-55
816000,-892,720,16644,114,-284,-34
818000,-948,668,16672,120,-293,-5
820000,-932,680,16616,151,-303,-53
822000,-960,708,16676,99,-318,-44
824000,-888,724,16780,128,-285,-16
826000,-916,744,16584,110,-310,-22
828004,-912,680,16564,90,-264,-8
830000,-924,652,16704,122,-284,-4
832000,-960,664,16664,102,-306,2
834000,-936,672,16560,134,-291,3
836000,-996,708,16672,84,-311,-8
838000,-980,728,16668,107,-308,-42
840000,-904,688,16616,80,-301,-18
842000,-876,696,16660,111,-288,-34
844000,-832,756,16632,121,-305,-13
846004,-956,672,16732,136,-273,-45
848000,-928,728,16672,123,-326,-26
850000,-884,688,16624,135,-285,-21
852000,-892,736,16704,124,-288,-34
854000,-936,724,16752,92,-302,-34
856000,-976,692,16616,98,-289,-34
858000,-908,676,16648,131,-273,6
860000,-868,692,16632,89,-310,-11
862000,-944,716,16700,103,-269,-26
864000,-948,724,16608,122,-285,-15
866000,-908,680,16664,134,-254,-25
868000,-936,748,16636,145,-307,-7
870000,-960,664,16728,127,-295,-6
872000,-908,708,16672,119,-276,-3
874000,-940,736,16632,135,-312,-26
876000,-904,772,16704,112,-283,-2
878000,-916,684,16612,115,-280,-10
880000,-904,680,16660,95,-266,-26
882000,-952,712,16660,116,-281,-34
884000,-888,720,16772,121,-340,13
886008,-852,740,16580,127,-269,2
888004,-884,688,16628,125,-258,-28
890000,-844,672,16660,117,-285,-28
892000,-968,768,16656,94,-275,1
894000,-900,664,16612,107,-278,-43
896000,-928,712,16596,123,-302,-18
898000,-912,728,16740,122,-272,-18
900000,-972,700,16604,126,-295,-41
902000,-904,704,16592,125,-302,-9
904000,-968,724,16740,91,-300,-19
906004,-924,704,16624,105,-303,-33
908000,-872,768,16676,101,-297,-11
910000,-952,700,16560,102,-276,-34
912000,-940,760,16588,131,-280,-14
914000,-956,716,16636,93,-276,11
916000,-932,728,16684,142,-290,-39
918000,-868,720,16616,110,-310,-16
920000,-896,676,16592,114,-277,-18
922004,-984,708,16660,136,-265,-40
924000,-916,720,16560,106,-303,-15
926000,-888,684,16608,136,-289,-24
928000,-888,704,16700,116,-319,-14
930000,-972,716,16628,118,-295,-8
932000,-960,688,16624,118,-284,-25
934000,-956,704,16600,102,-289,-37
936000,-888,700,16624,127,-288,-2
938000,-920,696,16640,106,-302,-34
940000,-924,656,16664,69,-290,21
942000,-928,680,16664,87,-276,-1
944000,-872,696,16640,165,-313,0
946004,-944,740,16720,124,-250,-72
948000,-892,648,16760,92,-307,-18
950000,-888,700,16620,116,-300,-27
952000,-900,608,16528,107,-272,-25
954004,-932,688,16644,109,-305,22
956000,-916,736,16684,123,-311,-24
958000,-840,648,16660,110,-273,-37
960000,-940,716,16696,104,-309,-25
962000,-908,700,16652,147,-274,-19
964000,-920,692,16692,127,-263,-24
966000,-956,684,16624,115,-300,-39
968000,-948,700,16696,116,-284,-47
970000,-940,752,16680,99,-269,-19
972000,-940,676,16692,85,-284,-9
974000,-864,700,16692,134,-290,-6
976004,-936,684,16656,96,-245,-11
978000,-868,664,16620,97,-319,-18
980000,-1020,728,16652,96,-304,-14
982000,-964,676,16652,134,-285,-30
984000,-908,640,16684,85,-290,9
986000,-888,684,16752,144,-307,-53
988000,-884,684,16748,100,-306,-43
990000,-940,764,16744,122,-275,-22
992000,-976,676,16672,148,-296,-50
994000,-916,728,16712,129,-291,-42
996000,-908,728,16584,123,-282,-46
998000,-888,756,16628,79,-307,-33
1000000,-952,720,16616,137,-258,-13
1002000,-840,716,16660,153,-308,-13
1004000,-880,676,16708,97,-322,13
1006000,-1004,704,16608,119,-291,-29
1008000,-948,616,16656,103,-319,-31
1010000,-892,684,16636,112,-277,-50
1012000,-920,720,16576,148,-276,22
1014008,-916,716,16768,114,-323,17
1016004,-936,704,16616,89,-289,-23
1018000,-940,736,16680,103,-276,-22
1020000,-856,672,16668,144,-294,-35
1022000,-960,632,16728,107,-293,-24
1024000,-964,664,16644,102,-311,-21
1026000,-972,716,16620,119,-294,-44
1028000,-912,652,16656,106,-307,-23
1030000,-900,672,16692,122,-276,1
1032000,-920,612,16660,138,-290,-3
1034004,-856,660,16688,111,-298,3
1036000,-896,720,16564,149,-285,-32
1038000,-888,668,16748,106,-303,-43
1040000,-912,684,16648,107,-281,-48
1042000,-928,760,16716,119,-304,-22
1044000,-928,700,16644,98,-330,-19
1046000,-956,776,16600,91,-294,8
1048000,-896,708,16568,131,-310,-29
1050004,-924,724,16668,84,-303,3
1052000,-924,732,16700,101,-297,-27
1054000,-868,676,16612,137,-275,-19
1056000,-880,740,16644,149,-277,-22
1058004,-932,744,16672,108,-286,-24
1060000,-852,680,16744,111,-276,-21
1062000,-896,724,16644,120,-288,-65
1064000,-900,748,16572,100,-277,-26
1066000,-868,780,16532,117,-281,-4
1068000,-892,712,16604,111,-269,-24
1070000,-996,720,16628,117,-320,-15
1072000,-924,676,16512,121,-294,-41
1074000,-860,736,16624,92,-292,-9
1076000,-976,704,16708,109,-288,-29
1078000,-848,744,16700,136,-311,1
1080004,-904,672,16616,105,-307,-24
1082004,-904,692,16608,120,-286,-38
1084004,-932,692,16696,99,-290,-39
1086000,-900,748,16624,112,-309,0
1088000,-920,676,16664,142,-278,-46
1090004,-900,708,16532,91,-271,-9
1092000,-924,776,16684,115,-286,-7
1094000,-928,680,16676,105,-288,-34
1096000,-964,676,16656,115,-267,13
1098004,-848,776,16564,117,-297,-27
1100000,-888,816,16600,143,-283,-67
1102000,-932,688,16768,102,-273,-25
1104004,-936,672,16700,90,-301,-33
1106000,-928,684,16668,129,-300,-29
1108000,-908,716,16648,133,-307,-26
1110000,-960,736,16684,105,-283,-19
1112000,-944,716,16732,112,-300,1
1114000,-932,660,16728,126,-253,-13
1116000,-948,676,16692,106,-293,-33
1118000,-872,700,16592,134,-315,-19
1120000,-932,704,16752,88,-304,-4
1122000,-932,700,16676,127,-296,-8
1124000,-908,680,16576,138,-284,3
1126000,-924,704,16672,116,-316,-34
1128000,-904,700,16700,157,-262,-36
1130000,-928,668,16600,134,-273,-43
1132000,-904,648,16612,125,-294,-38
1134000,-908,644,16736,115,-307,-11
1136000,-1000,692,16524,101,-298,-12
1138000,-820,716,16620,114,-289,13
1140000,-896,704,16584,142,-291,-17
1142008,-852,744,16500,108,-270,-1
1144004,-956,724,16588,81,-299,-7
1146000,-956,720,16732,144,-277,-39
1148000,-856,692,16696,120,-287,-21
1150000,-928,680,16640,139,-289,-21
1152000,-876,688,16684,96,-315,-30
1154000,-904,740,16648,106,-317,-26
1156000,-980,656,16696,100,-323,2
1158000,-904,680,16696,109,-302,-24
1160000,-888,636,16704,138,-271,-13
1162004,-988,700,16648,101,-271,-13
1164000,-968,704,16788,124,-282,-41
1166000,-916,696,16640,117,-320,-21
1168000,-952,716,16576,140,-308,-18
1170000,-944,756,16676,122,-296,4
1172000,-892,712,16604,83,-311,3
1174000,-936,676,16584,84,-292,2
1176000,-916,680,16684,118,-271,-23
1178000,-936,676,16604,115,-335,-16
1180000,-912,712,16672,112,-258,11
1182000,-920,692,16672,117,-266,1
1184000,-980,688,16624,108,-276,-30
1186000,-868,684,16528,118,-309,-35
1188000,-932,712,16664,117,-302,0
1190000,-912,704,16708,110,-295,-8
1192000,-944,664,16696,97,-284,-49
1194000,-996,740,16600,119,-294,-38
1196000,-948,712,16620,115,-276,-25
1198000,-848,748,16692,112,-295,3
1200000,-856,716,16616,84,-290,-12
1202000,-960,696,16640,137,-263,-32
1204000,-936,716,16680,127,-280,37
1206000,-884,688,16720,113,-256,-7
1208000,-1000,712,16620,104,-277,-18
1210000,-936,740,16652,119,-280,-37
1212004,-860,708,16672,94,-280,-10
1214000,-936,700,16672,127,-282,-6
1216000,-884,708,16612,82,-296,-31
1218000,-912,688,16612,96,-306,-36
1220000,-888,616,16656,125,-297,0
1222000,-924,672,16584,88,-289,-27
1224000,-904,652,16648,110,-303,-29
1226000,-868,704,16592,147,-284,-26
1228000,-912,680,16564,96,-263,13
1230004,-920,784,16600,81,-295,-11
1232000,-908,784,16632,148,-277,-4
1234000,-904,728,16672,110,-291,-60
1236000,-940,780,16564,117,-279,-24
1238000,-968,712,16600,115,-312,-7
1240000,-900,704,16624,111,-313,-35
1242000,-944,732,16652,114,-287,-10
1244000,-908,676,16608,131,-292,-35
1246000,-936,688,16616,124,-292,18
1248000,-948,792,16600,102,-290,-19
1250000,-948,704,16612,139,-272,-59
1252000,-908,720,16596,116,-288,-5
1254000,-936,724,16652,129,-278,13
1256000,-972,756,16688,130,-308,-26
1258000,-964,736,16576,119,-290,-6
1260000,-952,704,16580,103,-277,-10
1262000,-940,740,16620,122,-287,3
1264000,-904,628,16612,112,-291,-23
1266004,-972,720,16628,117,-313,-44
1268000,-904,700,16732,101,-267,-13
1270004,-852,704,16672,119,-285,-6
1272000,-952,728,16628,98,-308,-50
1274000,-944,764,16608,90,-309,-36
1276000,-884,712,16660,106,-293,-21
1278000,-920,720,16748,128,-275,-3
1280000,-972,736,16640,75,-310,8
1282000,-896,724,16584,98,-315,-39
1284000,-872,696,16716,110,-281,-13
1286000,-928,728,16648,103,-280,10
1288000,-964,692,16568,119,-280,8
1290000,-848,700,16532,110,-303,-6
1292000,-876,712,16596,122,-278,-39
1294000,-896,716,16572,111,-275,-40
1296000,-900,712,16616,135,-306,-15
1298000,-904,752,16580,124,-274,-16
1300000,-932,732,16608,84,-299,-20
1302000,-1004,712,16636,116,-295,-8
1304000,-956,676,16664,121,-324,-15
1306004,-944,660,16608,122,-282,-20
1308000,-976,672,16640,135,-273,-13
1310000,-972,592,16628,117,-331,8
1312000,-920,740,16644,123,-299,-19
1314000,-904,708,16680,123,-274,-26
1316000,-976,688,16740,103,-269,-39
1318000,-928,632,16656,85,-266,-18
1320000,-920,656,16716,116,-289,-33
1322000,-912,704,16644,107,-301,-26
1324000,-988,688,16628,80,-295,-14
1326000,-980,692,16744,135,-273,-43
1328000,-884,708,16684,95,-275,-17
1330000,-916,740,16732,143,-238,-15
1332000,-900,692,16604,117,-306,-3
1334000,-936,736,16720,108,-291,-23
1336000,-976,780,16696,107,-272,-19
1338000,-904,744,16572,92,-294,14
1340004,-892,732,16688,121,-295,-17
1342000,-916,684,16652,130,-274,-18
1344000,-940,728,16564,101,-292,13
1346000,-880,680,16556,112,-328,0
1348000,-928,716,16632,108,-281,-21
1350000,-980,700,16680,127,-291,-22
1352000,-868,672,16588,92,-290,-53
1354000,-900,676,16580,107,-272,-20
1356000,-908,676,16664,138,-272,-12
1358004,-892,680,16608,89,-277,-27
1360000,-908,720,16644,133,-315,-18
1362000,-968,652,16624,135,-280,-32
1364000,-940,660,16648,98,-270,-16
1366000,-944,716,16644,109,-291,-22
1368000,-960,704,16648,116,-264,-9
1370000,-960,724,16648,102,-274,-6
1372000,-972,728,16592,95,-317,-42
1374000,-952,736,16736,138,-291,-41
1376000,-908,692,16712,97,-290,11
1378000,-924,684,16708,121,-306,-2
1380000,-988,752,16628,130,-287,-21
1382000,-924,736,16604,127,-287,-8
1384000,-976,740,16572,116,-279,-35
1386000,-912,700,16660,126,-305,-31
1388000,-920,708,16584,116,-302,-20
1390000,-900,688,16652,134,-288,-23
1392000,-904,636,16628,127,-303,-10
1394004,-944,704,16552,115,-278,-20
1396000,-904,708,16612,101,-290,-9
1398004,-928,712,16696,118,-274,-42
1400000,-932,704,16584,118,-319,-7
1402000,-964,688,16672,95,-284,-15
1404000,-888,704,16672,133,-266,-16
1406000,-868,728,16576,118,-284,16
1408000,-948,740,16668,99,-281,-34
1410000,-916,760,16696,101,-276,-19
1412000,-884,692,16744,103,-278,-16
1414000,-968,728,16700,115,-290,-16
1416000,-924,740,16728,108,-309,-31
1418000,-884,780,16628,83,-300,3
1420000,-960,684,16576,106,-264,6
1422000,-916,656,16644,126,-291,-6
1424000,-940,732,16736,115,-306,-23
1426004,-864,692,16660,132,-281,-18
1428000,-896,736,16696,123,-287,-46
1430000,-904,668,16740,103,-270,-11
1432000,-932,684,16648,130,-261,-6
1434000,-940,620,16624,106,-274,-31
1436000,-868,644,16680,105,-295,12
1438000,-936,668,16584,115,-291,0
1440000,-864,776,16588,99,-281,-18
1442004,-920,684,16676,116,-263,-35
1444000,-940,760,16680,119,-287,-15
1446000,-936,712,16552,96,-303,-10
1448000,-952,728,16748,110,-282,-24
1450000,-952,636,16700,97,-303,-30
1452000,-936,600,16660,133,-278,-18
1454000,-868,696,16632,128,-292,0
1456000,-912,720,16568,104,-291,-14
1458000,-928,684,16616,138,-276,-27
1460000,-892,744,16732,98,-295,-17
1462000,-872,672,16752,135,-279,-23
1464004,-940,680,16612,105,-285,20
1466004,-884,720,16636,137,-279,-19
1468004,-872,644,16612,96,-294,-21
1470000,-924,724,16572,147,-307,-35
1472000,-912,700,16588,145,-302,0
1474004,-964,712,16740,109,-258,-17
1476000,-904,684,16720,111,-328,-6
1478000,-960,644,16664,137,-260,22
1480000,-892,716,16604,127,-266,-30
1482004,-884,692,16712,81,-322,-43
1484000,-976,704,16632,130,-277,2
1486000,-904,676,16620,116,-304,-19
1488000,-944,668,16680,105,-273,5
1490000,-948,676,16704,151,-296,-17
1492000,-888,736,16572,89,-276,-52
1494000,-932,704,16592,113,-272,-29
1496000,-948,676,16668,120,-333,-17
1498004,-944,744,16720,144,-293,-24
1500000,-920,660,16608,124,-267,-23
1502000,-936,744,16628,86,-292,-8
1504000,-880,692,16616,147,-286,-35
1506000,-880,656,16688,97,-254,-30
1508000,-916,700,16596,137,-272,-8
1510000,-888,736,16572,110,-284,-15
1512000,-952,696,16628,130,-305,1
1514000,-972,724,16648,113,-297,-36
1516000,-980,672,16660,120,-288,-64
1518000,-980,672,16656,128,-283,8
1520000,-888,752,16704,127,-321,12
1522000,-996,692,16676,97,-300,-16
1524000,-932,708,16616,123,-273,-18
1526008,-856,712,16696,122,-318,-30
1528004,-936,668,16660,117,-296,-4
1530000,-936,676,16596,132,-245,-23
1532000,-968,696,16612,134,-296,1
1534000,-932,696,16788,100,-283,-22
1536000,-896,696,16752,130,-273,-26
1538000,-872,732,16692,105,-256,-30
1540000,-868,712,16700,136,-278,4
1542000,-896,732,16676,120,-291,-55
1544000,-908,732,16668,105,-307,-25
1546004,-912,736,16716,82,-287,-7
1548000,-936,680,16704,149,-283,-26
1550000,-936,704,16600,85,-259,-12
1552000,-864,696,16596,117,-280,-31
1554000,-932,664,16588,101,-281,-36
1556000,-944,724,16676,131,-284,3
1558000,-940,688,16764,125,-289,-19
1560000,-960,716,16608,128,-306,1
1562000,-964,704,16640,105,-290,-29
1564000,-900,672,16596,97,-311,-20
1566000,-964,712,16568,131,-278,-28
1568000,-956,672,16684,100,-280,-12
1570004,-964,728,16768,72,-298,-28
1572000,-860,700,16732,107,-291,-14
1574000,-964,656,16656,114,-279,-33
1576000,-960,772,16508,96,-282,-8
1578000,-928,748,16648,120,-285,-35
1580000,-932,756,16596,95,-250,3
1582000,-996,728,16648,106,-274,3
1584000,-908,708,16692,125,-320,-9
1586000,-916,672,16656,103,-263,-23
1588000,-888,724,16632,95,-291,-33
1590000,-952,672,16596,98,-315,-6
1592004,-960,668,16740,120,-309,3
1594004,-952,780,16760,146,-280,8
1596004,-864,704,16692,142,-289,-33
1598000,-844,692,16776,107,-296,-9
1600000,-920,712,16624,94,-286,-22
1602004,-1000,664,16644,131,-302,-12
1604000,-924,620,16600,124,-261,-15
1606000,-916,672,16656,85,-303,-32
1608000,-940,680,16704,120,-272,-4
1610004,-868,672,16680,105,-250,-14
1612000,-948,668,16716,129,-298,-30
1614000,-964,708,16628,113,-297,-24
1616004,-884,716,16532,128,-291,-27
1618000,-896,644,16672,101,-268,-30
1620000,-932,676,16644,123,-274,-21
1622000,-932,700,16688,99,-278,-6
1624000,-972,728,16684,132,-294,0
1626000,-872,680,16580,127,-295,-26
1628000,-908,704,16664,73,-273,-8
1630000,-936,720,16624,152,-288,-15
1632000,-944,712,16532,143,-303,-13
1634000,-948,668,16604,113,-318,-31
1636000,-952,684,16564,105,-300,-7
1638000,-960,708,16692,122,-268,0
1640000,-980,712,16668,123,-306,-22
1642000,-984,676,16700,117,-279,4
1644000,-928,700,16640,118,-296,-23
1646000,-948,708,16708,134,-306,0
1648000,-948,676,16736,106,-296,-20
1650000,-992,664,16672,110,-289,-30
1652004,-900,720,16692,139,-290,-29
1654008,-896,696,16660,113,-310,-26
1656000,-976,764,16672,120,-260,-19
1658000,-976,612,16648,129,-291,-28
1660000,-936,680,16748,144,-278,-3
1662000,-880,688,16620,131,-266,-11
1664000,-1000,756,16620,126,-305,-20
1666000,-904,744,16676,160,-293,-3
1668000,-964,724,16600,139,-313,-44
1670000,-892,704,16628,138,-304,-33
1672000,-1036,656,16680,99,-260,-21
1674000,-912,700,16592,130,-306,-15
1676000,-928,756,16640,117,-275,-6
1678000,-964,620,16740,142,-297,-28
1680000,-872,724,16656,119,-292,-11
1682000,-908,684,16552,129,-255,-13
1684000,-924,728,16664,109,-295,11
1686000,-840,680,16656,94,-275,-30
1688000,-868,652,16600,108,-281,-16
1690004,-992,656,16672,115,-287,18
1692000,-952,688,16720,123,-265,-28
1694000,-940,664,16596,106,-273,-34
1696000,-904,660,16708,92,-287,-5
1698000,-900,724,16648,108,-317,-19
1700000,-912,692,16716,131,-261,-21
1702000,-976,712,16624,103,-314,-31
1704000,-904,676,16692,88,-295,-30
1706000,-912,660,16664,108,-291,-16
1708000,-868,652,16748,119,-281,-14
1710000,-852,748,16660,95,-306,-35
1712000,-880,708,16724,89,-310,-16
1714000,-900,716,16588,152,-283,17
1716000,-968,740,16664,93,-289,-24
1718000,-916,668,16644,94,-307,-35
1720000,-900,660,16616,130,-271,-37
1722000,-916,744,16628,127,-275,-19
1724004,-976,680,16592,122,-281,-10
1726000,-892,680,16648,108,-293,-31
1728000,-884,680,16604,130,-333,-36
1730000,-828,740,16636,81,-288,-31
1732000,-916,720,16696,137,-285,-29
1734000,-856,664,16648,99,-302,-35
1736000,-916,724,16660,100,-330,-30
1738000,-888,708,16612,125,-278,-15
1740000,-940,668,16748,93,-307,-11
1742000,-876,708,16688,138,-289,-9
1744000,-892,784,16656,105,-256,-11
1746000,-864,716,16704,86,-283,-10
1748000,-852,692,16760,98,-320,2
1750000,-952,684,16640,121,-295,-11
1752000,-888,736,16644,114,-289,-26
1754000,-956,784,16740,120,-273,-19
1756000,-952,724,16576,105,-294,-44
1758000,-948,704,16684,128,-252,-46
1760000,-988,748,16688,127,-285,-15
1762000,-928,736,16604,148,-295,-23
1764000,-908,680,16596,103,-323,7
1766000,-956,664,16632,98,-289,-4
1768000,-964,696,16664,134,-257,-20
1770000,-940,696,16620,105,-298,-12
1772000,-944,672,16732,126,-291,-10
1774000,-896,704,16632,111,-227,-7
1776000,-920,700,16684,112,-288,-9
1778000,-992,756,16628,89,-296,-15
1780004,-880,748,16612,152,-280,-20
1782008,-924,680,16624,148,-282,-27
1784000,-856,768,16680,125,-274,-17
1786000,-888,736,16656,108,-299,-36
1788000,-872,764,16628,136,-266,-14
1790000,-872,736,16608,151,-277,-38
1792000,-852,708,16632,120,-305,-3
1794000,-900,676,16608,133,-272,18
1796000,-932,728,16612,159,-316,-16
1798000,-884,760,16576,146,-283,-30
1800000,-928,732,16556,116,-271,-23
1802004,-920,648,16584,80,-295,-6
1804000,-956,764,16688,122,-299,0
1806000,-904,704,16640,119,-268,-15
1808000,-876,684,16660,137,-273,-30
1810000,-924,736,16776,115,-284,-37
1812000,-908,700,16668,95,-264,-21
1814000,-932,732,16524,106,-315,-23
1816000,-956,744,16584,144,-279,-58
1818004,-936,716,16616,106,-289,-35
1820000,-928,708,16692,136,-281,1
1822000,-920,720,16652,123,-301,13
1824000,-940,688,16700,98,-289,2
1826000,-880,704,16628,111,-271,-43
1828000,-948,648,16620,132,-304,-8
1830000,-908,732,16584,116,-314,18
1832000,-948,680,16732,97,-262,-18
1834000,-952,628,16600,106,-314,13
1836000,-908,688,16700,117,-304,-15
1838000,-924,724,16584,124,-304,-31
1840000,-884,752,16612,104,-257,-6
1842004,-972,704,16644,101,-299,13
1844000,-888,700,16684,112,-276,-28
1846000,-944,688,16632,114,-293,-8
1848000,-856,720,16592,82,-294,-15
1850004,-936,660,16712,132,-295,-60
1852000,-940,696,16616,116,-294,24
1854000,-1024,708,16672,106,-297,-21
1856000,-948,672,16568,112,-292,-39
1858000,-880,700,16704,117,-318,-28
1860000,-852,728,16724,132,-287,-54
1862000,-984,724,16776,112,-271,-40
1864000,-948,764,16672,112,-292,-18
1866000,-972,728,16648,110,-266,13
1868000,-952,684,16600,122,-281,-10
1870000,-952,680,16640,74,-289,-29
1872004,-936,728,16676,137,-277,-16
1874000,-868,684,16660,108,-255,-17
1876000,-928,708,16612,87,-300,21
1878000,-952,704,16764,106,-289,-11
1880000,-936,684,16744,143,-266,-47
1882000,-940,668,16752,120,-287,3
1884000,-860,672,16736,88,-292,8
1886000,-960,696,16608,92,-268,-8
1888000,-920,740,16596,76,-301,-37
1890000,-924,684,16748,88,-295,-3
1892000,-904,700,16736,131,-287,-9
1894000,-952,756,16796,87,-294,-16
1896000,-928,748,16692,118,-278,-21
1898000,-920,716,16644,113,-304,-52
1900000,-916,752,16512,147,-310,-18
1902000,-948,700,16488,102,-254,-48
1904000,-968,740,16696,110,-281,-18
1906004,-896,728,16536,88,-266,-28
1908000,-872,692,16640,103,-313,-27
1910004,-932,732,16724,115,-259,-42
1912000,-888,736,16668,133,-268,10
1914000,-908,736,16572,127,-318,-28
1916000,-908,752,16584,119,-271,-8
1918000,-868,728,16676,123,-277,4
1920000,-896,796,16776,116,-294,-15
1922000,-916,700,16728,102,-279,2
1924000,-908,716,16592,83,-299,-20
1926000,-1008,684,16688,113,-286,-24
1928000,-932,704,16648,89,-302,-5
1930000,-912,644,16680,114,-321,-6
1932000,-916,704,16700,124,-283,3
1934000,-884,724,16684,109,-287,3
1936000,-916,732,16768,118,-289,-42
1938000,-936,720,16744,146,-267,-19
1940000,-968,740,16640,118,-292,-34
1942000,-952,736,16532,87,-280,-30
1944000,-960,712,16644,113,-249,-7
1946000,-944,756,16616,101,-281,-5
1948000,-924,712,16644,115,-282,-1
1950000,-900,688,16600,115,-280,9
1952000,-908,668,16588,156,-299,-19
1954000,-948,708,16692,125,-282,-26
1956000,-920,728,16616,98,-273,-22
1958000,-928,736,16568,112,-302,-5
1960000,-896,704,16648,123,-285,-9
1962000,-912,696,16644,126,-303,-32
1964000,-884,688,16624,117,-299,-56
1966000,-880,764,16572,123,-309,-14
1968000,-968,732,16608,90,-308,-20
1970000,-904,708,16616,111,-293,-55
1972000,-928,708,16716,110,-321,-16
1974000,-956,784,16660,121,-295,-19
1976004,-956,708,16728,109,-303,-46
1978000,-896,720,16600,102,-337,19
1980004,-852,672,16640,121,-266,-19
1982000,-848,720,16684,89,-294,-3
1984000,-928,724,16696,115,-262,-21
1986000,-864,692,16668,114,-286,-32
1988000,-916,732,16660,122,-299,-15
1990000,-924,684,16676,119,-276,-21
1992000,-844,724,16584,104,-290,-41
1994000,-968,692,16760,91,-292,-26
1996000,-988,716,16660,111,-300,-11
1998000,-936,656,16708,126,-309,-36
2000000,-1000,652,16572,103,-301,-30
2002004,-960,716,16564,89,-303,-54
2004000,-964,732,16652,89,-285,-26
2006000,-932,636,16652,133,-286,-15
2008000,-912,760,16696,78,-274,-29
2010000,-924,684,16728,83,-267,18
2012000,-932,764,16652,116,-311,-37
2014000,-880,672,16636,106,-293,-9
2016000,-884,724,16652,89,-306,-6
2018000,-916,676,16632,115,-300,-14
2020000,-900,668,16652,113,-291,-38
2022000,-984,700,16672,78,-288,-38
2024000,-908,752,16660,127,-284,-29
2026000,-948,668,16668,117,-287,-19
2028000,-884,740,16704,117,-297,15
2030000,-880,700,16780,137,-294,-11
2032000,-860,688,16676,93,-289,-4
2034000,-872,712,16604,117,-300,-21
2036004,-892,704,16572,104,-270,-27
2038008,-888,696,16724,113,-295,-13
2040000,-964,684,16676,109,-278,-43
2042000,-964,680,16728,104,-303,-52
2044000,-932,688,16616,105,-309,7
2046000,-952,704,16592,117,-287,-31
2048000,-912,688,16600,126,-305,-37
2050000,-912,720,16616,113,-302,-14
2052000,-852,668,16732,114,-297,-9
2054000,-928,680,16668,104,-298,-15
2056000,-888,688,16712,131,-335,-4
2058000,-944,684,16528,118,-282,-21
2060000,-1020,696,16648,109,-300,-17
2062000,-956,696,16700,109,-276,-59
2064000,-872,736,16600,139,-280,-15
2066000,-912,724,16576,87,-318,2
2068000,-840,704,16552,118,-269,-37
2070000,-984,700,16700,127,-260,-6
2072000,-976,732,16680,113,-295,-24
2074004,-928,720,16708,132,-316,-36
2076000,-908,688,16592,153,-278,-40
2078000,-888,704,16620,119,-301,-34
2080000,-940,696,16744,124,-313,-36
2082000,-892,700,16764,108,-278,-22
2084000,-948,728,16560,93,-309,-1
2086000,-924,652,16608,139,-294,-38
2088000,-888,704,16588,105,-308,7
2090000,-912,700,16572,118,-323,-26
2092000,-932,728,16584,102,-324,-8
2094000,-928,688,16668,86,-303,-22
2096000,-952,720,16576,102,-301,-24
2098000,-924,712,16660,118,-298,-28
2100000,-912,656,16664,125,-271,-5
2102000,-920,688,16596,106,-270,-7
2104000,-1004,760,16612,137,-294,-29
2106000,-920,716,16600,106,-280,-22
2108000,-840,724,16652,119,-288,1
2110000,-896,656,16528,132,-263,-19
2112000,-872,764,16632,117,-302,-15
2114000,-884,828,16656,85,-282,-9
2116000,-928,656,16568,125,-283,-53
2118000,-888,644,16640,118,-284,-20
2120004,-912,700,16684,140,-302,5
2122000,-928,664,16656,132,-288,-36
2124000,-960,700,16676,91,-312,-19
2126000,-976,740,16564,129,-262,-45
2128000,-904,692,16732,88,-288,-16
2130000,-880,720,16736,102,-316,-29
2132000,-916,700,16728,137,-292,-8
2134000,-892,772,16576,139,-286,14
2136000,-920,700,16560,108,-289,-2
2138004,-968,644,16732,158,-289,-36
2140000,-916,668,16616,110,-267,-17
2142000,-900,640,16628,116,-298,-26
2144000,-916,632,16584,139,-326,-55
2146000,-936,660,16640,119,-282,-1
2148000,-908,720,16640,116,-291,-29
2150000,-924,684,16620,149,-279,-22
2152000,-904,732,16588,102,-263,-27
2154000,-840,768,16572,102,-259,-27
2156000,-976,696,16716,89,-280,-51
2158000,-868,724,16584,97,-305,-28
2160000,-864,716,16544,130,-278,-39
2162000,-924,692,16676,138,-293,32
2164000,-984,700,16764,132,-306,-23
2166008,-948,700,16708,93,-280,-11
2168004,-920,676,16660,148,-276,-34
2170000,-916,724,16672,87,-285,8
2172000,-912,660,16712,130,-282,-19
2174000,-892,732,16676,114,-304,-18
2176000,-936,692,16572,165,-316,-15
2178000,-900,724,16708,132,-313,-26
2180000,-928,668,16692,74,-287,-1
2182000,-904,668,16736,122,-303,-1
2184000,-896,724,16680,112,-285,-30
2186004,-944,660,16720,108,-288,-2
2188000,-900,720,16688,96,-274,10
2190000,-900,668,16616,135,-274,-47
2192000,-956,704,16664,132,-315,-7
2194000,-864,600,16672,135,-292,-27
2196000,-928,668,16632,99,-295,-18
2198000,-880,688,16692,110,-297,-44
2200000,-828,684,16628,135,-295,-15
2202004,-900,712,16664,103,-250,16
2204000,-884,720,16632,108,-314,-24
2206000,-956,728,16528,167,-312,22
2208000,-908,696,16580,122,-286,-38
2210000,-876,744,16796,112,-265,-38
2212000,-968,684,16708,109,-275,1
2214000,-872,716,16632,113,-339,-14
2216000,-932,696,16736,134,-314,-27
2218000,-924,640,16636,105,-258,-35
2220000,-940,788,16584,116,-292,-38
2222000,-828,724,16608,90,-305,-24
2224000,-928,672,16640,147,-278,-35
2226004,-888,736,16612,114,-285,-48
2228000,-892,676,16604,132,-291,-38
2230000,-964,716,16720,138,-260,0
2232000,-900,708,16704,89,-271,-40
2234004,-876,644,16676,142,-299,-52
2236000,-920,704,16580,143,-250,-27
2238000,-940,712,16636,104,-274,-33
2240000,-896,696,16636,135,-301,-30
2242000,-876,704,16524,97,-265,-54
2244000,-940,700,16576,102,-298,17
2246000,-856,656,16568,114,-288,-5
2248000,-868,768,16680,115,-277,-19
2250000,-944,692,16540,102,-300,-39
2252000,-944,760,16660,112,-304,-14
2254000,-992,716,16616,102,-316,-19
2256004,-936,660,16720,116,-286,7
2258000,-956,708,16628,113,-271,-5
2260000,-936,748,16640,138,-283,-9
2262000,-956,736,16708,117,-304,-16
2264000,-980,684,16624,126,-263,-12
2266000,-896,708,16504,149,-281,-8
2268000,-868,724,16656,127,-304,-20
2270000,-956,716,16640,102,-298,-15
2272000,-904,724,16704,103,-269,-27
2274000,-932,668,16724,140,-292,-39
2276000,-912,756,16668,108,-302,-53
2278000,-888,672,16516,94,-270,-40
2280000,-908,668,16620,110,-313,10
2282000,-992,704,16680,154,-286,-25
2284000,-912,696,16620,134,-272,-18
2286000,-908,696,16668,119,-277,-3
2288000,-944,676,16624,121,-300,21
2290004,-960,692,16612,132,-263,-23
2292000,-916,720,16728,128,-306,-25
2294008,-868,664,16620,131,-280,-2
2296000,-960,740,16604,119,-297,-16
2298000,-968,784,16664,122,-287,-7
2300000,-936,688,16756,127,-285,4
2302000,-1004,672,16616,102,-268,-21
2304000,-872,708,16736,123,-278,-28
2306000,-936,744,16632,104,-323,-1
2308000,-908,680,16620,123,-287,5
2310000,-920,692,16580,85,-294,-35
2312000,-912,684,16700,92,-282,-7
2314000,-908,660,16636,101,-250,-8
2316000,-956,664,16672,120,-287,-8
2318000,-916,776,16692,117,-273,-29
2320000,-904,760,16632,138,-249,-46
2322000,-920,688,16704,103,-299,22
2324000,-932,632,16612,101,-306,-28
2326000,-996,696,16676,111,-285,-27
2328000,-912,756,16664,127,-285,-33
2330000,-920,692,16636,99,-308,-30
2332000,-960,700,16580,130,-307,-45
2334000,-964,668,16736,145,-281,-33
2336000,-912,760,16676,151,-304,-23
2338000,-892,668,16572,81,-302,8
2340000,-900,680,16760,85,-265,-18
2342000,-956,700,16564,148,-264,4
2344000,-888,676,16596,141,-293,-16
2346000,-944,644,16692,100,-284,-33
2348000,-852,708,16696,129,-299,-2
2350000,-944,700,16724,107,-279,-31
2352000,-888,748,16668,118,-292,-42
2354000,-952,696,16684,104,-312,-4
2356000,-864,696,16668,93,-274,-5
2358000,-888,756,16676,113,-288,-40
2360004,-916,728,16744,111,-296,-14
2362000,-864,772,16632,137,-290,7
2364004,-904,748,16716,125,-270,11
2366000,-916,708,16684,107,-299,17
2368000,-912,716,16556,133,-291,-38
2370000,-920,772,16652,127,-294,-11
2372000,-928,712,16672,113,-297,-45
2374000,-976,744,16696,103,-285,-18
2376000,-920,740,16692,112,-287,-6
2378004,-896,708,16684,110,-296,-25
2380000,-868,728,16640,79,-276,-31
2382000,-896,716,16660,109,-294,-27
2384004,-908,712,16712,75,-293,-25
2386000,-952,684,16520,114,-286,-12
2388000,-884,672,16600,127,-279,-37
2390000,-912,676,16624,130,-268,-37
2392000,-908,664,16620,99,-272,-9
2394004,-944,732,16684,94,-277,-27
2396000,-888,716,16772,101,-287,-11
2398000,-956,704,16720,120,-294,-16
2400000,-884,712,16668,127,-289,-37
2402000,-884,684,16636,109,-296,-12
2404000,-932,676,16688,135,-281,-35
2406000,-908,716,16652,114,-303,-28
2408000,-920,664,16680,121,-293,-32
2410000,-916,724,16564,119,-284,-24
2412000,-888,744,16604,134,-271,-20
2414000,-912,768,16708,121,-284,5
2416000,-928,712,16544,97,-294,-16
2418000,-972,696,16660,117,-331,-51
2420000,-880,744,16584,103,-301,13
2422008,-916,752,16592,139,-284,-23
2424004,-912,688,16612,144,-260,2
2426000,-884,696,16636,113,-299,-37
2428000,-900,676,16692,115,-264,-18
2430000,-924,672,16608,94,-294,-45
2432000,-920,660,16688,108,-249,-47
2434000,-932,740,16540,144,-306,-21
2436000,-920,712,16524,136,-284,-11
2438000,-936,684,16692,127,-302,-29
2440000,-904,716,16604,115,-297,-9
2442004,-972,652,16632,95,-313,-7
2444000,-964,780,16760,121,-289,-2
2446000,-960,700,16656,93,-283,2
2448000,-940,692,16600,105,-292,-80
2450000,-932,644,16708,114,-319,-23
2452000,-916,676,16648,95,-284,-11
2454000,-904,728,16716,136,-261,-2
2456000,-868,752,16628,128,-272,-5
2458004,-884,624,16632,86,-295,-2
2460000,-936,688,16692,108,-297,-8
2462000,-916,644,16728,126,-277,15
2464000,-912,720,16668,143,-272,-30
2466000,-932,756,16640,121,-274,16
2468000,-876,644,16692,101,-283,-29
2470000,-884,680,16636,140,-317,1
2472000,-912,704,16712,129,-288,-32
2474000,-848,740,16656,103,-291,-32
2476000,-932,676,16544,104,-304,10
2478000,-932,744,16648,148,-279,-23
2480000,-916,692,16648,142,-283,-22
2482000,-916,680,16716,108,-274,-23
2484000,-912,704,16688,126,-310,-32
2486000,-948,660,16600,120,-333,10
2488004,-920,644,16596,104,-313,-23
2490004,-948,680,16692,116,-312,4
2492004,-936,636,16724,123,-306,-24
2494000,-916,668,16676,140,-307,-36
2496000,-892,708,16636,104,-305,-1
2498004,-896,764,16728,107,-277,-8
2500000,-964,684,16720,107,-298,-21
2502000,-944,668,16600,117,-238,-32
2504000,-940,656,16692,113,-271,6
2506004,-940,708,16472,117,-292,-37
2508000,-896,716,16668,131,-284,-33
2510000,-924,716,16608,97,-261,-26
2512004,-848,672,16564,103,-324,-21
2514000,-956,800,16592,119,-283,-38
2516000,-952,724,16680,108,-285,-18
2518000,-924,696,16576,121,-294,-13
2520000,-912,736,16572,120,-310,-19
2522000,-940,652,16672,115,-250,-37
2524000,-968,668,16664,81,-270,-17
2526000,-912,680,16640,150,-279,-27
2528000,-888,732,16644,87,-298,-16
2530000,-872,676,16760,130,-291,-24
2532000,-952,712,16608,135,-316,-12
2534000,-916,708,16684,95,-326,-4
2536000,-904,664,16648,102,-274,-33
2538000,-840,768,16588,133,-261,-18
2540000,-844,752,16676,112,-281,-18
2542000,-824,680,16668,86,-298,-22
2544000,-888,764,16572,106,-291,-8
2546000,-888,684,16648,126,-308,-43
2548000,-936,652,16688,113,-287,-7
2550008,-912,716,16688,122,-286,-5
2552000,-896,696,16612,130,-292,0
2554000,-892,692,16592,127,-290,-2
2556000,-984,704,16628,105,-301,-6
2558000,-900,676,16692,89,-287,-39
2560000,-928,720,16776,164,-269,-40
2562000,-960,688,16548,123,-309,-40
2564000,-888,740,16704,100,-302,-4
2566000,-948,656,16732,137,-296,-29
2568000,-952,752,16704,148,-274,-11
2570000,-932,760,16700,135,-277,-19
2572000,-928,700,16680,116,-277,5
2574000,-916,732,16672,94,-296,-16
2576000,-908,736,16688,96,-280,-42
2578000,-916,648,16636,104,-256,-44
2580000,-920,688,16692,146,-275,6
2582000,-892,668,16704,131,-268,-26
2584000,-912,720,16672,88,-321,-10
2586000,-912,700,16552,106,-263,-53
2588000,-884,684,16608,135,-267,-21
2590000,-940,728,16612,93,-297,-16
2592000,-916,660,16608,146,-326,-33
2594000,-840,680,16692,145,-291,-47
2596000,-952,680,16688,108,-299,13
2598000,-972,668,16612,130,-301,-11
2600000,-960,724,16732,65,-301,-44
2602000,-844,756,16756,122,-310,-7
2604000,-908,700,16608,112,-287,-8
2606000,-908,640,16716,123,-294,-19
2608000,-940,724,16596,127,-298,3
2610000,-928,692,16604,123,-312,-31
2612000,-860,716,16648,137,-289,-18
2614000,-880,732,16604,106,-312,-33
2616000,-972,696,16640,113,-261,-23
2618000,-936,712,16736,141,-308,-24
2620004,-956,720,16792,112,-266,-3
2622000,-940,704,16684,120,-303,-6
2624000,-908,668,16672,110,-298,-3
2626000,-944,744,16668,88,-264,-2
2628000,-972,708,16660,120,-263,12
2630000,-892,692,16640,112,-276,-18
2632000,-908,700,16652,85,-311,-19
2634000,-900,752,16560,109,-301,-9
2636000,-900,732,16572,124,-304,6
2638004,-900,752,16700,97,-254,-20
2640000,-900,708,16672,118,-287,-22
2642000,-964,736,16700,116,-310,-29
2644000,-896,724,16648,105,-263,-49
2646000,-944,688,16772,126,-258,-18
2648000,-932,640,16564,111,-322,-34
2650000,-948,652,16588,136,-281,-13
2652000,-956,732,16664,107,-254,-38
2654000,-924,712,16580,119,-293,-17
2656000,-916,744,16664,122,-285,-10
2658000,-916,740,16608,114,-296,-5
2660000,-852,704,16672,133,-309,1
2662000,-1012,716,16740,131,-276,7
2664000,-936,700,16692,122,-268,-32
2666000,-924,740,16704,136,-324,-22
2668000,-884,768,16696,102,-314,-16
2670000,-916,740,16584,118,-310,-21
2672000,-904,688,16712,135,-273,-1
2674004,-912,668,16660,105,-291,-33
2676000,-1000,712,16604,109,-287,15
2678008,-924,692,16688,101,-306,-37
2680000,-876,640,16708,98,-262,-24
2682000,-904,672,16644,135,-305,-7
2684000,-964,708,16684,146,-327,-15
2686000,-908,688,16668,99,-265,5
2688000,-928,676,16592,110,-288,-10
2690000,-932,716,16664,102,-319,-24
2692000,-896,716,16652,100,-279,-20
2694000,-888,696,16612,110,-294,-25
2696000,-924,728,16568,130,-265,-35
2698004,-876,672,16652,147,-242,-11
2700000,-936,680,16700,101,-277,-3
2702000,-912,716,16620,107,-300,-37
2704000,-904,712,16660,120,-298,-15
2706000,-860,712,16684,120,-303,17
2708000,-936,672,16744,121,-282,-7
2710000,-904,744,16628,101,-284,-15
2712000,-904,716,16492,118,-296,-12
2714000,-984,692,16700,122,-271,-6
2716000,-904,752,16592,144,-314,9
2718000,-916,720,16676,124,-269,-24
2720000,-920,716,16672,99,-287,-38
2722000,-916,708,16576,113,-314,-61
2724000,-968,736,16668,105,-316,-1
2726000,-928,740,16772,140,-301,-23
2728004,-928,684,16692,129,-328,-36
2730000,-928,732,16688,137,-310,14
2732000,-996,808,16696,118,-270,-26
2734000,-996,756,16728,105,-290,-31
2736000,-940,740,16660,110,-307,-9
2738000,-936,628,16604,120,-282,-44
2740000,-908,656,16636,115,-320,2
2742000,-992,640,16560,160,-280,6
2744004,-940,724,16612,87,-288,-45
2746000,-1016,688,16704,146,-281,-34
2748004,-876,748,16768,104,-288,-29
2750000,-908,680,16664,105,-300,-11
2752000,-976,716,16620,111,-277,-23
2754000,-932,728,16756,95,-312,-30
2756000,-876,688,16660,147,-269,-47
2758000,-952,732,16680,110,-292,-19
2760000,-920,716,16612,141,-299,4
2762004,-932,728,16668,128,-265,-18
2764000,-864,756,16744,86,-272,-36
2766000,-912,676,16676,141,-259,-44
2768004,-968,784,16648,132,-300,-8
2770000,-888,772,16600,109,-275,3
2772000,-928,756,16620,93,-259,-19
2774000,-912,644,16668,129,-266,-39
2776000,-924,732,16616,130,-298,-41
2778004,-944,684,16680,84,-283,9
2780000,-888,664,16704,93,-273,-23
2782000,-908,744,16600,118,-288,-7
2784000,-944,688,16632,82,-324,-26
2786000,-868,660,16660,130,-307,-10
2788000,-904,752,16564,140,-276,-42
2790000,-912,692,16568,136,-290,-6
2792000,-916,672,16604,96,-316,-38
2794000,-920,692,16584,125,-273,-29
2796000,-964,724,16656,121,-249,5
2798000,-896,728,16640,146,-282,-37
2800000,-956,684,16568,115,-295,-34
2802000,-956,728,16592,111,-292,-22
2804000,-896,708,16732,123,-308,-8
2806008,-948,720,16704,115,-319,-15
2808004,-944,680,16656,129,-297,-32
2810000,-924,648,16652,138,-317,-39
2812000,-944,720,16640,124,-284,20
2814000,-928,688,16616,85,-308,-16
2816000,-908,704,16688,102,-296,-33
2818000,-940,668,16592,145,-275,-50
2820000,-884,704,16712,132,-312,-31
2822000,-932,684,16652,87,-310,-30
2824000,-916,736,16600,87,-315,-23
2826004,-940,680,16692,135,-281,-8
2828000,-892,720,16668,125,-297,-33
2830000,-932,664,16636,132,-301,-25
2832000,-848,708,16656,121,-305,19
2834000,-920,768,16740,136,-302,-6
2836000,-920,696,16620,139,-277,-34
2838000,-932,744,16680,124,-269,1
2840000,-908,732,16648,125,-308,-26
2842004,-944,756,16672,127,-309,-21
2844000,-904,676,16636,100,-298,-21
2846000,-928,756,16608,95,-291,-61
2848000,-876,684,16636,138,-327,-5
2850000,-952,696,16708,134,-263,-39
2852000,-892,712,16576,89,-340,-5
2854000,-876,668,16704,121,-303,-22
2856000,-872,712,16568,95,-300,-4
2858000,-912,756,16656,86,-297,-2
2860000,-920,752,16612,126,-264,1
2862000,-932,720,16648,156,-322,-23
2864000,-912,748,16672,111,-277,-38
2866000,-932,752,16588,85,-266,-29
2868000,-920,732,16700,97,-270,-24
2870000,-864,740,16624,113,-285,1
2872000,-904,756,16744,139,-291,0
2874000,-880,732,16744,98,-289,-8
2876004,-928,660,16692,115,-269,-35
2878000,-840,692,16668,128,-297,-24
2880000,-888,664,16632,77,-283,-35
2882000,-888,744,16568,96,-279,-15
2884000,-984,664,16704,95,-282,-19
2886000,-908,728,16580,124,-306,-24
2888000,-932,772,16684,90,-278,-27
2890000,-948,748,16700,128,-300,-12
2892000,-888,732,16688,106,-280,-38
2894004,-916,676,16660,138,-320,-38
2896000,-956,748,16624,137,-299,-15
2898000,-908,720,16624,110,-286,4
2900000,-912,684,16768,88,-321,-50
2902000,-924,708,16700,130,-278,-35
2904000,-956,728,16700,127,-309,-28
2906000,-896,628,16644,104,-303,-4
2908000,-968,668,16632,85,-284,-38
2910000,-880,716,16716,81,-282,-17
2912000,-924,732,16704,127,-276,-33
2914000,-880,700,16708,140,-289,15
2916000,-884,708,16600,125,-276,-26
2918000,-948,724,16632,95,-299,1
2920000,-960,708,16744,114,-271,-1
2922000,-880,704,16652,129,-273,-10
2924000,-880,688,16644,111,-294,-47
2926000,-904,752,16640,121,-310,-25
2928000,-928,716,16692,124,-308,-40
2930004,-912,712,16568,105,-280,-26
2932000,-1016,728,16700,90,-267,-7
2934004,-884,668,16628,113,-305,-32
2936000,-860,692,16660,116,-286,-29
2938000,-964,704,16564,137,-288,-34
2940000,-904,752,16676,93,-310,-47
2942000,-1016,708,16624,81,-265,6
2944000,-892,748,16664,106,-296,-13
2946000,-884,748,16636,114,-280,-22
2948000,-896,704,16668,90,-249,-33
2950000,-880,720,16600,109,-291,-20
2952000,-948,660,16636,89,-283,-33
2954004,-952,728,16744,126,-297,1
2956000,-924,708,16588,98,-291,0
2958000,-948,772,16664,104,-290,1
2960000,-940,732,16608,100,-292,-28
2962000,-964,676,16628,146,-260,-46
2964000,-900,724,16572,113,-310,-47
2966000,-924,700,16756,97,-292,20
2968000,-920,660,16668,81,-308,-44
2970004,-956,688,16644,115,-307,-9
2972000,-948,696,16616,102,-267,-1
2974000,-912,716,16732,116,-293,-36
2976000,-920,744,16764,127,-312,-9
2978004,-888,700,16640,102,-266,8
2980000,-940,724,16668,100,-290,-41
2982000,-864,656,16700,113,-314,-8
2984000,-944,688,16768,95,-269,-32
2986000,-924,700,16676,106,-278,-49
2988000,-896,760,16620,129,-280,-12
2990000,-892,704,16684,134,-292,-32
2992000,-872,708,16708,99,-280,-19
2994000,-936,652,16672,121,-298,-13
2996000,-936,668,16684,106,-266,-20
2998000,-924,732,16604,110,-280,-8
3000004,-940,688,16612,132,-303,-16
3002000,-912,736,16640,84,-288,-13
3004004,-808,696,16556,116,-301,8
3006000,-936,680,16624,131,-319,-21
3008000,-892,692,16612,77,-293,14
3010000,-936,720,16488,107,-268,1
3012000,-932,644,16648,149,-294,-16
3014000,-964,728,16600,128,-301,-40
3016000,-908,636,16672,126,-280,-31
3018004,-940,688,16656,98,-287,-16
3020000,-872,700,16648,131,-300,-10
3022000,-924,676,16648,111,-301,-11
3024000,-876,664,16584,106,-284,-29
3026000,-944,624,16744,153,-289,-21
3028000,-972,720,16708,131,-304,9
3030000,-936,692,16700,111,-274,-21
3032000,-976,700,16804,98,-295,-19
3034000,-984,648,16712,106,-243,-42
3036000,-908,680,16728,129,-279,-18
3038000,-956,728,16636,107,-292,-25
3040000,-940,724,16672,87,-316,-42
3042000,-900,684,16612,144,-299,-20
3044000,-964,708,16708,125,-327,-35
3046000,-980,736,16560,110,-294,-6
3048000,-956,712,16732,105,-284,-29
3050000,-936,720,16664,131,-326,10
3052000,-944,720,16620,113,-306,-13
3054000,-916,672,16552,136,-263,-39
3056000,-888,736,16648,115,-288,-5
3058000,-940,732,16716,105,-294,-19
3060004,-976,704,16584,120,-299,-23
3062008,-936,728,16572,123,-304,-7
3064000,-932,672,16648,110,-299,-17
3066000,-852,684,16656,117,-304,-4
3068000,-860,728,16604,139,-309,-29
3070000,-912,704,16612,99,-333,-32
3072000,-1020,664,16612,143,-277,-8
3074000,-964,716,16708,109,-289,-20
3076000,-952,736,16648,104,-309,-25
3078000,-876,712,16660,127,-289,-29
3080000,-940,672,16628,134,-312,-25
3082000,-944,780,16732,127,-274,-1
3084000,-920,728,16632,111,-305,-17
3086000,-936,724,16728,99,-269,-12
3088000,-928,724,16656,100,-304,-57
3090000,-956,676,16644,95,-302,-21
3092000,-928,704,16700,113,-292,-4
3094000,-976,732,16552,117,-294,3
3096000,-920,736,16688,91,-271,-34
3098004,-916,724,16724,139,-272,-14
3100000,-940,708,16712,121,-280,7
3102000,-956,700,16668,101,-312,-31
3104000,-924,700,16568,114,-285,4
3106000,-964,708,16604,133,-326,-14
3108000,-852,724,16648,111,-293,2
3110000,-892,688,16604,67,-321,-21
3112000,-896,732,16668,110,-301,-46
3114000,-960,704,16576,102,-285,7
3116000,-892,696,16716,120,-288,-36
3118000,-892,660,16532,112,-300,-51
3120000,-884,684,16580,83,-301,-6
3122000,-916,736,16548,112,-271,-29
3124000,-916,660,16728,102,-322,-44
3126000,-940,684,16664,122,-303,15
3128000,-1004,712,16696,98,-308,3
3130000,-956,744,16616,143,-296,-11
3132004,-928,752,16672,91,-291,-27
3134000,-984,740,16720,83,-312,-33
3136000,-936,636,16548,126,-292,-16
3138000,-964,732,16532,113,-301,-21
3140000,-896,704,16708,101,-307,-43
3142000,-968,732,16692,90,-269,-15
3144000,-916,732,16588,111,-291,18
3146000,-952,692,16688,97,-277,-20
3148000,-924,804,16632,121,-309,-33
3150004,-992,684,16672,145,-275,-40
3152000,-880,756,16724,127,-310,-8
3154000,-948,660,16744,126,-282,-29
3156000,-936,752,16504,107,-303,-14
3158000,-940,688,16704,119,-272,-31
3160000,-904,744,16736,113,-276,-21
3162000,-812,632,16628,121,-289,-51
3164000,-892,720,16696,114,-298,-26
3166000,-952,704,16652,98,-345,7
3168000,-952,756,16636,155,-272,-20
3170000,-868,712,16652,103,-304,8
3172000,-936,692,16592,117,-303,-24
3174000,-848,692,16652,147,-279,-36
3176000,-932,676,16648,63,-296,6
3178000,-908,740,16640,94,-317,-31
3180000,-900,656,16648,125,-269,-29
3182000,-908,660,16620,100,-312,-4
3184000,-892,692,16600,118,-258,1
3186004,-896,712,16576,94,-305,14
3188004,-852,676,16548,96,-293,-33
3190008,-992,708,16604,108,-314,-24
3192004,-980,728,16684,145,-308,-18
3194000,-972,744,16548,122,-303,-13
3196000,-936,784,16592,115,-297,-24
3198000,-936,680,16620,133,-284,-10
3200000,-960,664,16616,133,-295,-13
3202000,-912,688,16632,104,-313,-14
3204000,-928,720,16684,147,-261,-19
3206000,-964,736,16652,124,-295,-22
3208000,-968,744,16676,141,-287,38
3210000,-944,692,16576,102,-308,13
3212000,-888,676,16608,121,-301,-29
3214000,-900,672,16644,148,-294,6
3216000,-904,712,16664,114,-274,-33
3218000,-952,776,16628,115,-274,-55
3220000,-948,772,16740,106,-323,6
3222000,-884,704,16676,109,-314,-22
3224000,-884,764,16724,132,-292,-18
3226004,-872,724,16740,88,-289,-27
3228000,-904,668,16716,118,-328,-21
3230000,-960,712,16768,105,-298,-11
3232000,-960,724,16712,127,-264,-29
3234000,-904,700,16652,131,-282,5
3236000,-916,740,16592,85,-303,-24
3238000,-928,688,16568,95,-278,-28
3240000,-944,700,16640,105,-320,-53
3242000,-896,716,16580,91,-300,-21
3244000,-896,664,16600,115,-275,8
3246000,-920,768,16612,112,-278,-27
3248000,-912,732,16688,85,-316,0
3250000,-908,704,16744,126,-326,-24
3252000,-880,728,16772,121,-295,-32
3254000,-952,756,16676,125,-291,-9
3256000,-948,596,16720,104,-276,-41
3258000,-928,668,16632,105,-256,-35
3260004,-908,716,16656,109,-304,4
3262000,-900,724,16720,128,-297,-15
3264000,-916,668,16624,121,-289,1
3266000,-920,684,16692,115,-300,-8
3268000,-908,700,16668,148,-305,-20
3270000,-880,736,16692,138,-283,-20
3272000,-972,756,16652,88,-294,9
3274000,-892,712,16632,63,-317,-10
3276000,-896,696,16620,115,-265,-15
3278004,-920,660,16676,108,-315,22
3280000,-896,736,16584,100,-283,-39
3282000,-916,668,16644,135,-296,-23
3284000,-936,736,16688,131,-306,2
3286000,-904,744,16636,120,-296,-24
3288000,-888,716,16716,111,-300,11
3290000,-908,644,16604,104,-277,-41
3292000,-852,736,16628,121,-287,-7
3294000,-920,728,16668,121,-315,12
3296000,-976,700,16736,110,-308,-32
3298000,-904,720,16632,123,-327,-2
3300000,-924,756,16640,77,-302,-18
3302000,-884,732,16628,137,-253,-37
3304000,-920,676,16608,101,-304,8
3306000,-904,736,16712,132,-296,-43
3308000,-884,708,16744,146,-327,30
3310000,-960,692,16652,146,-309,-8
3312000,-944,664,16588,115,-269,-9
3314000,-892,704,16584,91,-287,-14
3316004,-920,736,16748,153,-299,-44
3318008,-940,760,16720,104,-272,-17
3320000,-928,708,16712,104,-250,1
3322000,-920,780,16656,78,-287,-19
3324000,-920,656,16648,114,-304,-32
3326000,-920,672,16636,122,-257,4
3328000,-908,704,16560,122,-257,-13
3330000,-888,708,16644,122,-306,-32
3332000,-912,704,16592,99,-305,2
3334000,-900,728,16620,81,-302,-32
3336000,-944,720,16564,111,-297,30
3338000,-916,752,16584,102,-283,-37
3340000,-1004,740,16664,103,-317,-27
3342000,-936,704,16644,103,-295,-25
3344000,-908,732,16632,127,-263,-35
3346000,-904,716,16648,119,-303,7
3348004,-932,688,16740,110,-303,-4
3350000,-912,668,16648,117,-284,-56
3352000,-928,712,16688,115,-272,-23
3354000,-900,764,16640,106,-275,-5
3356000,-956,732,16652,148,-301,-8
3358000,-940,664,16640,71,-297,7
3360000,-912,676,16680,144,-264,-7
3362000,-896,720,16620,85,-296,-36
3364000,-968,736,16596,82,-317,2
3366000,-948,716,16708,71,-274,-19
3368000,-960,740,16600,117,-263,-38
3370000,-904,732,16648,100,-279,-29
3372000,-876,744,16584,82,-300,-7
3374000,-912,656,16724,148,-271,-40
3376000,-944,772,16548,95,-270,15
3378000,-960,712,16700,105,-299,-17
3380000,-960,720,16580,122,-333,-9
3382000,-992,724,16580,120,-346,-21
3384000,-932,756,16620,104,-270,-16
3386000,-916,700,16636,151,-268,-12
3388004,-840,704,16500,111,-306,-23
3390000,-872,684,16576,117,-288,-26
3392000,-904,756,16664,123,-291,-11
3394000,-976,656,16672,90,-301,-37
3396000,-864,704,16688,118,-289,-20
3398000,-896,720,16680,109,-258,-11
3400000,-928,720,16560,109,-298,-25
3402000,-904,728,16724,128,-279,-4
3404000,-964,700,16768,117,-246,-43
3406004,-940,660,16604,95,-303,-20
3408000,-1016,804,16680,82,-273,-23
3410000,-932,664,16624,144,-276,-18
3412000,-840,748,16740,115,-258,-6
3414000,-924,656,16680,105,-296,-38
3416000,-952,648,16680,140,-264,-23
3418004,-876,700,16672,124,-306,9
3420000,-944,660,16648,98,-273,-35
3422000,-972,672,16676,159,-314,-40
3424000,-924,780,16728,152,-252,-9
3426000,-980,776,16600,135,-271,-24
3428000,-888,732,16692,123,-294,-31
3430000,-916,700,16656,77,-293,-23
3432000,-888,684,16636,123,-301,-15
3434000,-932,632,16660,109,-292,-11
3436000,-936,736,16688,116,-321,-17
3438000,-944,712,16756,90,-293,-22
3440000,-964,692,16612,106,-292,-15
3442000,-848,672,16740,108,-310,-6
3444000,-952,696,16596,87,-302,-18
3446008,-956,688,16668,125,-284,-4
3448004,-928,680,16644,126,-297,18
3450000,-940,712,16628,111,-274,-2
3452000,-952,720,16648,125,-296,-51
3454000,-932,680,16648,106,-281,-4
3456000,-992,676,16648,120,-280,-11
3458000,-896,696,16672,129,-307,0
3460000,-928,772,16604,106,-313,-19
3462000,-872,688,16620,124,-290,-17
3464000,-920,772,16684,122,-309,-22
3466004,-972,788,16720,72,-282,-31
3468000,-932,732,16660,143,-323,-20
3470000,-924,728,16708,133,-290,-16
3472000,-896,700,16640,84,-320,-22
3474000,-944,696,16688,90,-292,-23
3476000,-1016,724,16520,90,-295,-7
3478000,-856,732,16644,132,-295,-24
3480000,-964,792,16676,117,-293,-51
3482000,-984,744,16744,101,-296,-30
3484000,-892,720,16728,122,-284,8
3486000,-944,692,16660,129,-251,-31
3488000,-984,720,16700,98,-275,-5
3490004,-864,712,16668,120,-275,-33
3492000,-904,660,16700,129,-285,-27
3494000,-916,724,16792,112,-286,-31
3496000,-896,664,16736,121,-286,-10
3498000,-880,784,16704,123,-311,-40
3500000,-912,692,16628,120,-270,-47
3502000,-936,752,16656,148,-252,22
3504000,-936,684,16708,129,-289,-37
3506000,-928,692,16688,133,-302,-32
3508000,-908,720,16608,127,-307,-4
3510000,-944,724,16528,131,-310,-26
3512004,-892,716,16604,120,-281,-28
3514004,-888,740,16704,112,-296,-21
3516004,-864,708,16588,121,-305,10
3518000,-888,728,16660,106,-281,-26
3520000,-944,612,16684,106,-304,2
3522004,-916,656,16724,93,-319,-31
3524000,-948,692,16596,112,-286,-65
3526000,-920,744,16640,112,-286,-14
3528000,-888,728,16672,115,-263,-46
3530004,-944,752,16712,106,-322,-16
3532000,-876,692,16560,123,-283,-1
3534000,-900,764,16656,127,-303,-28
3536000,-952,688,16680,116,-302,-29
3538000,-968,720,16664,111,-265,-35
3540000,-940,708,16796,113,-276,-10
3542000,-952,732,16728,127,-280,13
3544000,-876,668,16676,114,-286,-26
3546004,-952,692,16732,142,-286,-30
3548000,-864,736,16640,97,-274,-39
3550000,-944,712,16680,107,-297,-37
3552000,-904,704,16576,108,-284,-19
3554000,-936,732,16584,111,-277,-27
3556000,-992,724,16676,115,-330,-26
3558000,-880,708,16604,125,-300,-26
3560000,-948,680,16616,117,-272,4
3562000,-880,752,16664,130,-286,-40
3564000,-968,684,16628,98,-317,-1
3566000,-940,704,16664,156,-305,-28
3568000,-956,636,16672,114,-295,-32
3570000,-876,656,16696,104,-295,-33
3572000,-896,672,16756,135,-293,-19
3574008,-880,688,16704,103,-282,5
3576004,-984,680,16680,131,-298,4
3578000,-892,732,16652,118,-283,-26
3580000,-908,748,16724,128,-248,-43
3582000,-924,716,16648,123,-296,-18
3584000,-944,672,16616,122,-293,-25
3586000,-940,688,16656,118,-317,-29
3588000,-952,684,16576,144,-270,-25
3590000,-924,716,16712,90,-295,-21
3592000,-1012,700,16652,89,-290,-28
3594004,-928,720,16716,105,-268,-12
3596000,-900,684,16752,103,-273,-35
3598000,-940,680,16632,126,-303,-37
3600000,-964,652,16652,116,-309,-28
3602000,-884,724,16616,102,-287,-20
3604000,-972,732,16616,130,-273,-22
3606000,-904,656,16672,128,-275,13
3608000,-916,692,16664,127,-292,-13
3610000,-880,712,16652,134,-309,-17
3612000,-944,704,16640,141,-283,-14
3614000,-900,668,16668,95,-283,2
3616000,-968,720,16716,144,-288,-8
3618000,-900,708,16660,69,-322,-28
3620000,-928,684,16664,143,-256,-20
3622000,-940,712,16748,127,-265,-37
3624000,-896,724,16608,105,-269,-61
3626000,-860,736,16700,125,-318,-17
3628000,-888,712,16608,129,-280,1
3630000,-860,648,16684,75,-273,-41
3632000,-940,676,16624,140,-289,-37
3634000,-888,708,16612,137,-302,-20
3636000,-900,740,16708,109,-311,-25
3638000,-880,736,16608,110,-288,-23
3640004,-896,716,16620,113,-283,-21
3642004,-920,724,16592,112,-302,-5
3644004,-944,744,16528,124,-290,3
3646000,-860,704,16692,112,-277,-29
3648000,-892,668,16644,93,-309,-28
3650004,-924,728,16656,107,-306,-15
3652000,-924,676,16640,150,-306,-10
3654000,-996,704,16748,106,-297,-33
3656000,-928,696,16592,123,-299,-52
3658000,-896,708,16680,122,-289,-34
3660000,-940,672,16600,112,-289,-27
3662000,-932,720,16588,107,-306,-6
3664004,-988,732,16760,96,-293,-30
3666000,-964,692,16640,87,-274,-15
3668000,-860,708,16712,136,-276,-5
3670000,-860,704,16660,118,-284,1
3672000,-864,712,16652,102,-285,-14
3674000,-920,748,16612,135,-270,-15
3676000,-916,796,16652,107,-286,-22
3678000,-904,708,16716,103,-269,-33
3680000,-948,728,16740,153,-304,-24
3682000,-924,728,16700,99,-288,-12
3684000,-912,696,16660,106,-282,-14
3686000,-988,720,16568,136,-293,-52
3688000,-880,692,16644,105,-289,-3
3690000,-892,676,16664,99,-315,5
3692000,-996,756,16672,98,-291,-17
3694000,-904,656,16628,122,-308,2
3696000,-884,772,16612,117,-284,-14
3698004,-912,760,16620,125,-290,-23
3700000,-880,696,16712,124,-337,-3
3702004,-912,752,16544,106,-273,-8
3704000,-988,696,16656,116,-279,-21
3706000,-904,664,16696,140,-273,-52
3708000,-940,724,16660,127,-315,-25
3710000,-940,668,16588,94,-284,-53
3712000,-912,696,16732,95,-275,-12
3714000,-968,752,16744,115,-318,-29
3716000,-900,728,16636,96,-324,-2
3718000,-936,768,16576,93,-295,-23
3720000,-880,648,16680,130,-301,10
3722000,-916,700,16720,117,-298,18
3724000,-892,680,16704,114,-308,-27
3726000,-892,624,16576,140,-307,-30
3728000,-916,700,16520,146,-297,-9
3730000,-920,732,16792,123,-269,-24
3732000,-912,684,16744,119,-310,-47
3734000,-960,648,16664,110,-292,-15
3736000,-912,700,16592,149,-291,-34
3738004,-888,716,16564,61,-302,-19
3740000,-960,720,16652,125,-278,12
3742000,-928,744,16676,115,-294,-25
3744000,-964,740,16664,94,-311,-24
3746000,-944,736,16588,127,-304,-49
3748000,-912,716,16640,119,-263,-33
3750000,-940,700,16644,130,-296,-10
3752000,-932,692,16620,108,-298,-29
3754000,-952,720,16604,102,-275,-33
3756000,-988,660,16624,116,-273,-5
3758000,-908,772,16640,116,-323,1
3760000,-900,712,16600,121,-288,-22
3762000,-884,684,16632,127,-275,-31
3764000,-884,704,16740,128,-288,-38
3766000,-920,748,16612,86,-304,-23
3768000,-932,700,16700,120,-277,1
3770000,-836,752,16684,101,-273,-5
3772004,-888,696,16628,137,-273,-22
3774000,-860,744,16712,135,-267,-48
3776000,-884,692,16652,126,-285,-22
3778000,-888,692,16732,76,-325,-50
3780000,-924,668,16616,120,-301,-45
3782000,-896,664,16668,118,-284,-8
3784000,-1008,688,16680,103,-265,0
3786000,-1012,708,16600,116,-294,10
3788000,-960,756,16624,114,-280,-40
3790000,-940,668,16684,134,-259,-12
3792000,-968,748,16736,127,-277,-39
3794000,-920,648,16744,130,-297,-22
3796000,-892,684,16724,111,-286,4
3798000,-948,700,16664,144,-289,14
3800000,-904,676,16664,106,-283,-14
3802004,-928,720,16556,108,-291,-3
3804000,-892,728,16704,108,-293,-34
3806000,-880,696,16736,93,-301,-45
3808000,-900,728,16576,81,-327,-11
3810000,-972,696,16596,126,-287,-18
3812000,-908,732,16600,93,-287,-7
3814000,-924,708,16632,104,-265,-16
3816000,-884,708,16636,146,-293,-23
3818000,-812,668,16644,134,-261,-40
3820000,-892,736,16576,143,-310,-40
3822000,-936,648,16612,102,-316,-29
3824000,-872,748,16656,105,-252,6
3826000,-956,764,16600,111,-294,-36
3828000,-904,764,16708,127,-295,-20
3830008,-988,656,16732,95,-267,-17
3832004,-920,748,16656,97,-276,-19
3834000,-868,720,16680,126,-274,-33
3836000,-940,704,16712,142,-299,-16
3838000,-996,700,16668,110,-305,-53
3840000,-972,740,16664,102,-289,-24
3842000,-948,684,16556,117,-306,-25
3844000,-860,648,16600,106,-294,-29
3846000,-912,764,16672,90,-285,-26
3848000,-908,664,16672,120,-287,-9
3850000,-880,728,16600,118,-294,-53
3852000,-952,656,16584,132,-293,-21
3854000,-888,648,16652,124,-312,-25
3856000,-944,720,16656,123,-309,3
3858000,-952,684,16616,140,-288,5
3860000,-952,688,16596,120,-292,0
3862000,-964,732,16744,91,-276,-27
3864000,-900,740,16592,118,-304,-2
3866000,-916,748,16732,95,-298,-2
3868000,-924,704,16676,84,-293,-50
3870000,-924,700,16588,132,-296,-37
3872000,-928,716,16632,137,-304,-13
3874000,-924,736,16632,94,-292,-9
3876000,-936,716,16588,108,-263,-42
3878000,-940,672,16592,92,-298,-14
3880000,-892,724,16728,135,-304,-9
3882000,-972,672,16636,97,-294,11
3884000,-992,740,16660,103,-318,-48
3886000,-904,720,16632,133,-276,-14
3888000,-912,724,16632,105,-289,-26
3890000,-916,676,16624,108,-312,2
3892000,-916,652,16696,135,-279,-12
3894000,-988,700,16664,115,-276,-49
3896004,-964,684,16668,80,-262,-37
3898000,-932,776,16616,148,-294,-56
3900004,-948,640,16632,104,-263,-24
3902000,-876,740,16656,139,-291,-20
3904000,-876,756,16776,119,-298,-12
3906000,-936,776,16716,79,-286,-38
3908000,-912,684,16652,143,-279,1
3910000,-912,668,16628,104,-276,-25
3912000,-944,700,16652,110,-291,-27
3914000,-936,700,16692,132,-313,-7
3916000,-912,812,16600,107,-305,-10
3918000,-872,660,16540,87,-273,-1
3920000,-940,708,16676,126,-287,-28
3922004,-976,744,16632,117,-291,-37
3924000,-900,724,16640,126,-274,-2
3926000,-940,676,16652,102,-313,9
3928000,-888,712,16620,102,-291,-20
3930000,-896,704,16720,127,-282,-25
3932000,-932,708,16660,119,-285,-24
3934000,-936,764,16672,104,-284,23
3936000,-924,708,16600,78,-268,-7
3938000,-948,748,16608,128,-271,-16
3940000,-948,676,16648,154,-296,-15
3942000,-904,700,16740,95,-303,-49
3944000,-928,824,16620,117,-291,-21
3946000,-932,740,16516,117,-309,-48
3948000,-952,716,16696,114,-276,10
3950000,-880,744,16664,129,-270,-32
3952000,-968,700,16660,133,-298,-14
3954000,-944,676,16684,104,-281,16
3956004,-880,752,16604,129,-291,3
3958008,-912,644,16644,115,-299,-43
3960000,-900,676,16604,114,-298,14
3962000,-968,684,16684,128,-286,-19
3964000,-916,684,16572,92,-301,-8
3966000,-928,748,16648,128,-311,-10
3968000,-928,692,16684,140,-255,-18
3970000,-1016,696,16736,100,-285,-3
3972000,-948,728,16680,137,-308,1
3974000,-908,732,16604,96,-270,-28
3976000,-984,688,16688,118,-314,2
3978004,-924,672,16584,128,-287,-25
3980000,-908,708,16584,71,-280,-21
3982000,-952,660,16740,91,-275,11
3984000,-888,656,16708,101,-304,2
3986000,-932,748,16660,87,-278,3
3988000,-936,708,16684,117,-291,-23
3990000,-956,740,16604,129,-273,-10
3992000,-920,720,16624,131,-297,-14
3994004,-948,700,16680,120,-289,-27
3996000,-912,760,16648,98,-275,2
3998000,-820,756,16604,132,-315,-14
4000000,-928,664,16672,140,-297,7
4002000,-876,680,16612,116,-310,-30
4004000,-892,652,16628,125,-295,15
4006000,-936,728,16628,113,-272,-38
4008000,-916,716,16604,98,-296,-42
4010000,-920,760,16672,138,-277,-38
4012000,-924,732,16576,111,-281,-13
4014000,-924,696,16652,97,-317,-36
4016000,-932,668,16684,86,-291,-2
4018004,-908,752,16752,87,-243,-3
4020000,-936,648,16660,124,-286,-22
4022000,-944,632,16672,124,-309,-38
4024000,-968,712,16660,93,-281,-33
4026004,-972,720,16696,98,-297,-17
4028000,-932,728,16696,82,-278,-17
4030000,-992,708,16676,106,-295,-9
4032000,-904,704,16712,109,-266,-17
4034000,-904,724,16720,124,-302,-8
4036000,-952,684,16704,128,-280,-23
4038000,-940,696,16572,75,-290,-31
4040000,-944,712,16620,115,-294,-29
4042004,-924,752,16720,98,-282,-24
4044000,-964,684,16676,97,-282,-18
4046000,-904,664,16576,117,-278,-43
4048004,-888,752,16636,104,-283,-46
4050000,-928,700,16620,120,-275,-22
4052000,-924,632,16628,112,-294,-18
4054000,-900,684,16632,111,-293,13
4056000,-928,752,16652,89,-309,-30
4058004,-956,668,16608,121,-281,-22
4060000,-916,708,16688,123,-298,-36
4062000,-928,692,16592,103,-309,-30
4064000,-908,636,16664,86,-295,10
4066000,-904,736,16596,110,-318,-40
4068000,-916,768,16600,116,-284,-29
4070000,-904,700,16572,121,-289,-8
4072000,-932,752,16644,96,-283,6
4074000,-936,696,16616,108,-294,-22
4076000,-900,668,16608,111,-297,-34
4078000,-896,740,16624,132,-285,-11
4080000,-884,772,16624,152,-297,-21
4082000,-944,700,16552,99,-308,4
4084000,-900,640,16580,86,-250,7
4086008,-836,696,16684,111,-276,-12
4088004,-936,700,16676,124,-277,6
4090000,-964,704,16708,118,-284,11
4092000,-912,664,16596,118,-339,-22
4094000,-964,696,16716,105,-282,-23
4096000,-940,676,16668,94,-306,-35
4098000,-920,712,16676,127,-281,-21
4100000,-932,724,16696,102,-290,-21
4102000,-896,640,16684,90,-317,-5
4104000,-960,736,16712,84,-306,-26
4106000,-932,700,16604,113,-307,-15
4108000,-916,724,16612,106,-286,10
4110000,-968,744,16664,157,-294,-8
4112000,-988,720,16804,120,-279,-20
4114000,-860,696,16604,108,-265,-4
4116000,-980,728,16596,98,-290,32
4118000,-936,736,16700,101,-324,-36
4120000,-936,712,16624,121,-279,-43
4122000,-912,712,16564,97,-295,4
4124000,-976,740,16636,138,-277,-7
4126000,-980,704,16616,98,-313,-39
4128000,-944,676,16688,83,-309,-6
4130000,-908,648,16596,166,-317,3
4132000,-912,664,16712,133,-283,-28
4134000,-916,740,16560,125,-272,-27
4136000,-888,744,16568,137,-284,-18
4138000,-884,764,16632,121,-311,-11
4140000,-908,692,16668,86,-299,-28
4142000,-928,704,16588,97,-294,-23
4144000,-952,700,16624,129,-311,-47
4146000,-960,696,16540,139,-292,-33
4148000,-932,708,16580,90,-306,-12
4150000,-944,656,16668,112,-307,-14
4152004,-908,672,16608,91,-307,-11
4154000,-872,712,16648,87,-300,-11
4156004,-952,648,16612,126,-281,-16
4158000,-864,700,16676,130,-280,13
4160000,-892,764,16620,109,-267,-17
4162000,-952,700,16740,124,-273,-12
4164000,-956,732,16760,129,-269,-23
4166000,-856,760,16644,96,-264,0
4168000,-912,704,16708,84,-324,-34
4170004,-940,708,16684,78,-315,12
4172000,-920,716,16792,135,-310,-22
4174000,-992,680,16676,122,-247,-18
4176004,-932,684,16660,125,-320,-22
4178000,-896,624,16716,103,-307,-24
4180000,-936,712,16596,117,-300,24
4182000,-956,716,16612,106,-287,-15
4184000,-876,656,16552,134,-295,-23
4186004,-896,716,16528,116,-286,-4
4188000,-932,732,16732,111,-312,5
4190000,-940,708,16600,89,-281,-29
4192000,-932,676,16716,146,-286,-16
4194000,-992,708,16612,89,-337,-3
4196000,-912,696,16684,125,-309,8
4198000,-896,656,16616,98,-286,-12
4200000,-872,736,16620,108,-296,-45
4202000,-888,720,16708,112,-305,-23
4204000,-924,736,16612,117,-309,-6
4206000,-944,692,16672,86,-306,-4
4208000,-936,692,16488,124,-263,-2
4210000,-900,652,16600,129,-295,-4
4212000,-924,716,16644,131,-293,-16
4214008,-948,712,16688,132,-277,-42
4216000,-972,728,16676,127,-271,10
4218000,-832,724,16604,115,-270,-32
4220000,-992,712,16708,104,-275,-5
4222000,-940,680,16560,124,-311,-28
4224000,-956,668,16652,116,-307,-20
4226000,-868,712,16632,97,-295,-25
4228000,-876,724,16640,137,-291,-37
4230000,-972,752,16700,98,-299,-29
4232000,-908,700,16516,146,-287,-22
4234000,-932,700,16564,124,-280,-9
4236000,-912,696,16712,96,-290,-17
4238000,-868,752,16744,82,-314,-42
4240000,-912,700,16536,161,-294,-22
4242000,-940,728,16580,120,-277,-27
4244000,-952,720,16660,126,-291,-40
4246000,-932,636,16748,116,-309,-27
4248000,-964,664,16656,85,-283,0
4250004,-900,700,16600,120,-312,10
4252000,-892,720,16624,112,-281,-13
4254000,-920,760,16656,104,-290,-28
4256000,-924,752,16744,117,-287,-38
4258000,-976,744,16688,98,-280,-16
4260000,-940,716,16564,120,-279,-20
4262000,-904,656,16620,148,-270,-40
4264000,-904,712,16652,82,-315,-14
4266000,-936,716,16652,123,-284,-22
4268000,-932,736,16608,108,-294,-19
4270000,-1004,728,16664,123,-326,-2
4272000,-900,760,16704,122,-289,-24
4274000,-880,684,16704,124,-275,-33
4276000,-948,660,16764,106,-318,11
4278000,-1000,692,16676,79,-309,3
4280000,-932,692,16740,102,-300,-41
4282000,-940,792,16764,130,-257,21
4284004,-968,720,16628,109,-318,-4
4286000,-928,696,16708,120,-313,-17
4288000,-908,636,16712,99,-277,-38
4290000,-864,720,16660,105,-297,-32
4292000,-924,732,16696,110,-296,-11
4294000,-960,728,16576,102,-290,-45
4296000,-892,688,16684,119,-292,-39
4298000,-940,708,16736,139,-290,18
4300000,-932,676,16652,104,-293,-5
4302004,-936,668,16660,108,-279,-7
4304000,-904,708,16704,129,-326,-9
4306000,-952,680,16756,142,-296,-39
4308000,-920,644,16628,120,-306,-2
4310000,-916,736,16632,110,-265,-12
4312000,-876,732,16696,121,-296,-29
4314000,-976,696,16784,99,-311,-15
4316000,-940,724,16736,98,-293,-30
4318000,-904,636,16664,117,-283,-7
4320000,-956,708,16664,128,-272,-4
4322000,-908,708,16728,124,-300,-5
4324000,-928,708,16644,98,-290,-34
4326000,-888,720,16556,96,-295,-6
4328000,-912,748,16696,134,-282,-14
4330000,-960,732,16664,90,-258,-26
4332000,-976,668,16600,97,-309,-1
4334000,-956,712,16636,139,-303,-2
4336000,-920,680,16716,118,-274,-22
4338004,-936,716,16648,127,-334,-16
4340000,-904,688,16640,133,-293,-5
4342004,-948,736,16628,114,-289,-13
4344000,-904,644,16696,118,-308,-28
4346000,-936,696,16624,102,-304,7
4348000,-924,692,16708,124,-284,-1
4350000,-908,660,16620,104,-293,-2
4352000,-924,592,16540,106,-282,-48
4354000,-924,732,16688,105,-304,-1
4356000,-932,752,16756,99,-316,-19
4358000,-900,688,16716,133,-250,-13
4360000,-892,688,16652,114,-303,-26
4362004,-992,700,16508,141,-286,8
4364000,-896,668,16620,100,-325,5
4366000,-904,708,16724,131,-258,4
4368000,-900,744,16708,131,-263,-35
4370000,-892,696,16628,95,-307,-5
4372000,-956,668,16524,114,-283,-1
4374000,-956,668,16700,133,-306,-22
4376000,-876,740,16596,164,-321,-6
4378004,-904,720,16640,105,-261,3
4380000,-824,712,16584,77,-278,-19
4382000,-916,744,16620,99,-319,-24
4384000,-956,708,16680,146,-260,-22
4386000,-916,708,16724,123,-306,-13
4388000,-888,688,16724,143,-304,-33
4390000,-904,688,16668,130,-280,-2
4392000,-936,664,16664,58,-304,1
4394000,-928,704,16728,99,-289,-11
4396000,-968,672,16748,120,-319,-29
4398000,-948,676,16576,134,-316,9
4400000,-932,736,16568,124,-309,-16
4402000,-928,772,16744,133,-306,-17
4404000,-992,756,16684,107,-304,9
4406000,-908,716,16680,119,-276,-37
4408004,-944,728,16636,132,-284,-22
4410004,-932,720,16640,104,-279,8
4412004,-924,664,16656,88,-302,-22
4414000,-952,744,16616,138,-292,-10
4416000,-928,760,16580,138,-273,-8
4418004,-896,728,16612,121,-286,-38
4420000,-884,692,16708,109,-264,7
4422000,-888,696,16676,111,-279,0
4424000,-864,728,16636,127,-307,-5
4426004,-896,660,16600,80,-313,-40
4428000,-964,716,16688,125,-256,-50
4430000,-916,736,16616,159,-305,-39
4432004,-908,720,16672,133,-305,-27
4434000,-884,648,16724,124,-295,-1
4436000,-900,760,16708,100,-297,2
4438000,-944,712,16648,130,-305,-9
4440000,-964,660,16540,163,-311,-19
4442000,-992,720,16628,105,-314,-7
4444000,-936,712,16624,103,-288,0
4446000,-928,668,16708,143,-295,5
4448000,-860,712,16652,112,-302,-5
4450000,-904,712,16548,126,-302,-3
4452000,-956,728,16676,138,-294,-44
4454000,-960,736,16644,140,-272,23
4456000,-956,692,16608,125,-270,-10
4458000,-884,744,16692,98,-323,-11
4460000,-932,696,16656,107,-285,-45
4462000,-1016,732,16584,113,-273,-35
4464000,-920,716,16728,133,-301,-8
4466000,-888,668,16592,122,-251,-3
4468000,-960,724,16680,98,-324,-11
4470004,-872,716,16596,105,-294,-62
4472000,-908,668,16700,141,-303,-35
4474004,-924,700,16636,152,-305,-16
4476000,-904,700,16596,115,-281,-27
4478000,-988,664,16672,135,-292,-19
4480000,-940,724,16688,116,-291,-4
4482000,-892,712,16648,88,-297,-21
4484000,-836,752,16760,112,-311,1
4486000,-896,660,16704,122,-300,-34
4488000,-912,716,16588,117,-292,-22
4490000,-908,700,16744,117,-261,-1
4492000,-928,736,16644,132,-300,-21
4494000,-952,712,16680,121,-295,14
4496000,-876,680,16640,100,-260,27
4498000,-964,664,16664,119,-325,-20
4500000,-908,744,16620,104,-267,-31
4502000,-852,712,16640,116,-294,-9
4504000,-908,716,16684,136,-274,-3
4506004,-960,728,16648,121,-274,-32
4508000,-956,708,16692,113,-298,-22
4510000,-920,704,16604,148,-273,-21
4512000,-988,740,16660,107,-291,-19
4514000,-920,712,16624,108,-270,-40
4516000,-952,748,16660,117,-299,-23
4518000,-924,772,16732,112,-256,-34
4520000,-944,688,16604,103,-273,2
4522000,-976,704,16700,122,-276,-26
4524000,-916,708,16644,128,-259,-36
4526000,-884,676,16660,109,-330,-25
4528000,-948,732,16652,136,-266,-22
4530000,-956,712,16732,114,-304,-9
4532000,-980,748,16668,117,-319,-27
4534000,-884,728,16708,112,-277,-31
4536000,-900,684,16696,115,-292,-26
4538000,-876,716,16624,107,-275,-49
4540004,-888,752,16752,131,-281,-39
4542000,-876,764,16644,143,-288,2
4544000,-912,684,16632,112,-299,12
4546000,-872,696,16720,130,-294,-11
4548000,-904,716,16788,119,-312,-17
4550000,-868,740,16592,138,-267,-21
4552000,-888,680,16760,110,-282,-37
4554000,-876,668,16564,99,-270,-29
4556000,-864,704,16644,95,-293,-41
4558004,-928,748,16600,117,-292,-29
4560000,-868,756,16592,103,-288,-13
4562000,-960,696,16720,109,-305,-27
4564000,-900,720,16684,117,-284,-15
4566000,-928,788,16700,126,-289,-26
4568000,-972,660,16656,109,-302,-19
4570000,-936,724,16696,79,-273,5
4572000,-932,752,16712,111,-297,-2
4574000,-924,668,16668,120,-304,-29
4576000,-916,708,16608,87,-274,-19
4578000,-944,676,16676,124,-290,-15
4580000,-908,656,16656,150,-290,-19
4582000,-876,768,16760,125,-282,19
4584000,-944,764,16672,75,-292,-48
4586000,-864,660,16704,136,-297,-33
4588000,-852,692,16748,116,-295,-6
4590000,-960,692,16688,106,-291,-33
4592000,-924,672,16696,114,-280,-29
4594004,-888,664,16600,101,-304,-39
4596000,-896,688,16640,99,-304,-17
4598008,-932,680,16756,122,-279,-23
4600000,-924,680,16612,114,-270,0
4602000,-912,724,16580,122,-306,-26
4604000,-860,676,16696,116,-293,-32
4606000,-832,692,16692,140,-298,-22
4608000,-936,716,16680,138,-278,-36
4610000,-872,712,16696,132,-299,-18
4612000,-960,728,16556,84,-288,7
4614000,-900,676,16700,92,-311,-47
4616000,-880,712,16704,101,-283,6
4618004,-868,712,16828,108,-316,2
4620000,-928,656,16640,117,-250,-24
4622000,-976,712,16664,125,-304,-18
4624000,-952,744,16672,163,-304,-58
4626000,-948,736,16752,130,-313,-26
4628000,-892,704,16600,116,-308,-27
4630000,-924,704,16560,104,-292,-13
4632000,-892,664,16716,106,-259,-28
4634000,-908,760,16760,143,-286,-24
4636000,-992,692,16604,115,-326,9
4638000,-968,784,16648,120,-248,17
4640000,-944,700,16668,96,-284,-7
4642000,-968,736,16792,129,-302,-4
4644000,-980,708,16708,111,-267,9
4646000,-860,724,16628,140,-298,-7
4648000,-996,740,16612,106,-288,-27
4650000,-936,696,16580,100,-300,2
4652000,-940,696,16636,99,-313,-3
4654000,-956,744,16660,112,-280,-16
4656000,-904,732,16540,102,-300,-7
4658000,-936,712,16628,123,-277,-15
4660000,-924,680,16716,96,-281,-5
4662000,-976,716,16644,107,-288,-28
4664004,-916,600,16640,139,-288,4
4666000,-892,716,16560,109,-276,19
4668004,-1036,708,16608,99,-291,9
4670000,-916,724,16672,112,-302,13
4672000,-916,708,16700,121,-293,12
4674000,-944,668,16688,103,-231,-13
4676000,-852,696,16736,112,-299,-66
4678000,-988,684,16588,111,-294,-17
4680000,-836,688,16552,126,-276,-11
4682004,-896,720,16564,139,-296,-32
4684000,-924,648,16660,87,-267,-11
4686000,-980,704,16648,107,-294,-42
4688004,-920,696,16612,137,-286,-40
4690000,-924,760,16656,79,-299,-9
4692000,-924,752,16596,104,-324,-42
4694000,-880,688,16676,114,-288,11
4696000,-960,696,16680,115,-290,0
4698004,-864,708,16592,106,-309,-32
4700000,-936,732,16612,112,-285,-1
4702000,-948,724,16676,81,-284,-47
4704000,-964,672,16656,156,-312,2
4706000,-952,688,16628,133,-315,-24
4708000,-976,652,16568,91,-295,-39
4710000,-892,696,16700,106,-315,-3
4712000,-932,716,16672,92,-253,-10
4714000,-916,728,16708,121,-303,-18
4716000,-848,688,16632,123,-292,-20
4718000,-852,732,16676,145,-286,-23
4720000,-924,760,16640,105,-325,-29
4722004,-968,772,16608,106,-315,-2
4724004,-904,692,16572,139,-277,-6
4726008,-892,736,16604,112,-272,-16
4728004,-904,684,16736,109,-289,-37
4730000,-936,712,16644,135,-279,-45
4732000,-960,732,16624,102,-298,-36
4734000,-888,684,16628,111,-300,-27
4736000,-956,732,16668,117,-301,-8
4738000,-880,732,16652,93,-291,-39
4740000,-916,764,16672,123,-298,-47
4742000,-908,704,16624,106,-318,-41
4744000,-924,724,16572,102,-288,-35
4746000,-908,708,16604,89,-309,-54
4748000,-936,744,16716,121,-295,-9
4750000,-904,732,16660,93,-322,-15
4752000,-932,716,16720,130,-309,-47
4754000,-852,816,16684,101,-312,-15
4756000,-944,684,16776,101,-296,-13
4758000,-928,736,16656,133,-328,-22
4760000,-936,660,16620,113,-298,-15
4762004,-900,720,16596,125,-301,-41
4764000,-924,724,16648,117,-291,-22
4766000,-956,688,16616,104,-303,-29
4768000,-900,688,16636,103,-280,5
4770000,-964,680,16572,118,-314,17
4772000,-836,704,16656,99,-325,1
4774000,-836,704,16744,118,-302,-2
4776000,-984,724,16696,148,-297,-33
4778000,-992,684,16632,135,-301,-19
4780000,-904,704,16620,129,-305,11
4782000,-964,724,16632,99,-304,-4
4784000,-888,720,16632,107,-312,-6
4786000,-960,720,16676,110,-270,17
4788000,-916,732,16576,118,-307,-12
4790000,-892,788,16688,125,-293,-30
4792000,-912,748,16624,139,-328,-13
4794000,-952,720,16668,133,-279,-20
4796004,-944,644,16660,111,-304,-20
4798000,-888,668,16700,116,-314,-13
4800000,-936,704,16640,76,-265,-24
4802000,-940,656,16740,134,-262,-6
4804000,-976,664,16640,120,-328,-34
4806000,-892,720,16624,112,-279,-10
4808000,-940,684,16696,143,-292,-14
4810000,-976,664,16712,122,-298,-9
4812000,-932,668,16724,115,-301,-49
4814004,-920,740,16472,106,-307,-26
4816000,-876,720,16684,113,-282,-16
4818000,-908,668,16692,126,-312,11
4820000,-904,700,16704,123,-274,-25
4822000,-916,740,16556,106,-303,-24
4824000,-876,800,16552,94,-310,-12
4826000,-904,736,16748,105,-298,-19
4828000,-928,748,16604,122,-268,-16
4830000,-940,716,16672,104,-316,-34
4832000,-904,772,16624,105,-312,-11
4834000,-888,708,16640,108,-274,-22
4836000,-904,692,16576,151,-287,-31
4838000,-960,700,16632,99,-281,-3
4840000,-876,724,16692,108,-303,-4
4842000,-960,800,16744,140,-289,-11
4844000,-916,712,16636,109,-291,-26
4846000,-884,716,16568,109,-270,-14
4848000,-944,740,16672,120,-306,-20
4850004,-944,664,16584,109,-257,-25
4852000,-920,684,16712,138,-280,-13
4854004,-904,732,16528,85,-318,-18
4856000,-948,740,16672,117,-265,-22
4858000,-948,708,16600,102,-275,-13
4860000,-884,776,16636,135,-290,-32
4862000,-904,736,16644,107,-297,-12
4864000,-928,652,16552,85,-308,-14
4866000,-904,716,16640,115,-304,-27
4868000,-876,644,16580,100,-265,-47
4870000,-944,640,16568,136,-265,-7
4872000,-940,680,16588,124,-288,-36
4874000,-928,728,16712,88,-289,-21
4876000,-880,672,16664,112,-296,-55
4878000,-952,700,16684,77,-308,14
4880000,-888,684,16700,78,-275,-8
4882000,-988,720,16676,156,-275,-23
4884000,-980,704,16680,107,-326,10
4886000,-976,696,16472,112,-300,-32
4888000,-904,652,16680,102,-321,-27
4890004,-948,740,16748,120,-281,-24
4892000,-960,716,16576,114,-268,-8
4894000,-940,692,16640,102,-301,-22
4896000,-916,668,16588,101,-253,-3
4898004,-864,716,16684,102,-296,-24
4900000,-884,752,16700,81,-295,-34
4902000,-872,672,16520,115,-293,-37
4904000,-880,704,16724,101,-305,-17
4906000,-988,708,16732,155,-283,-15
4908000,-916,708,16672,87,-310,-29
4910000,-888,724,16716,128,-307,8
4912000,-920,740,16684,136,-312,-16
4914000,-872,712,16692,137,-293,0
4916000,-896,744,16692,99,-309,-19
4918000,-860,704,16616,85,-290,-23
4920004,-860,704,16628,92,-294,9
4922000,-912,732,16656,101,-282,-3
4924004,-904,768,16624,104,-301,-28
4926000,-900,764,16596,84,-278,-19
4928000,-920,656,16680,112,-317,-17
4930000,-932,728,16716,103,-318,-16
4932000,-868,716,16580,96,-265,-27
4934000,-940,724,16608,130,-292,-18
4936000,-908,660,16660,120,-312,-14
4938004,-892,668,16628,105,-279,-43
4940000,-884,788,16592,124,-296,-44
4942000,-916,768,16656,145,-274,-18
4944000,-900,716,16560,128,-305,-7
4946000,-928,708,16608,114,-304,-34
4948000,-904,720,16660,114,-340,-20
4950000,-912,684,16720,136,-284,-49
4952000,-924,696,16700,139,-269,-35
4954000,-944,672,16512,124,-279,-36
4956000,-916,728,16732,113,-295,-40
4958000,-940,696,16624,108,-313,-30
4960000,-900,684,16620,115,-304,0
4962000,-952,684,16684,136,-291,11
4964000,-920,692,16664,134,-315,0
4966000,-908,656,16612,135,-295,-17
4968000,-948,720,16620,116,-291,8
4970000,-964,720,16732,131,-318,-53
4972000,-880,724,16588,109,-295,-4
4974000,-996,732,16660,104,-301,-4
4976000,-928,700,16596,108,-301,-28
4978004,-940,740,16660,117,-310,2
4980004,-892,676,16644,123,-298,-30
4982008,-940,716,16616,128,-285,-6
4984004,-956,732,16564,99,-284,-23
4986000,-948,720,16644,120,-331,-27
4988000,-880,716,16764,121,-289,-11
4990000,-860,692,16572,107,-309,-34
4992000,-880,684,16564,134,-305,-15
4994000,-948,684,16628,111,-273,-17
4996000,-920,688,16668,136,-301,6
4998000,-928,716,16684,117,-308,-26
5000000,-928,744,16572,119,-295,-24
5002000,-832,732,16732,138,-282,-29
5004000,-916,748,16644,84,-302,-9
5006000,-940,680,16632,113,-278,-2
5008000,-884,708,16644,95,-271,-13
5010000,-900,680,16636,105,-291,-25
5012000,-916,704,16612,107,-272,-25
5014000,-900,652,16616,92,-300,12
5016000,-932,732,16652,110,-320,-5
5018004,-860,672,16632,134,-313,6
5020000,-852,740,16548,105,-298,-13
5022000,-884,648,16592,102,-283,-30
5024000,-924,732,16608,123,-304,-13
5026000,-940,732,16648,136,-321,-26
5028000,-880,692,16600,124,-283,-34
5030000,-912,704,16708,136,-281,-29
5032000,-908,772,16588,98,-293,-15
5034000,-904,724,16592,129,-286,-5
5036000,-912,676,16608,134,-326,-19
5038000,-900,716,16664,109,-323,-27
5040000,-904,736,16660,109,-275,-6
5042000,-916,760,16696,103,-288,-20
5044000,-920,708,16560,105,-322,-6
5046000,-992,716,16668,122,-305,-29
5048000,-892,736,16760,118,-304,-6
5050000,-948,788,16720,85,-304,-21
5052004,-900,704,16616,121,-261,-28
5054000,-912,700,16688,122,-283,4
5056000,-872,716,16680,99,-317,-23
5058000,-916,700,16680,132,-296,-19
5060000,-892,688,16724,110,-323,-25
5062000,-892,792,16640,106,-305,-9
5064000,-900,732,16612,121,-307,-28
5066000,-896,664,16732,127,-312,-14
5068000,-876,748,16684,112,-330,-7
5070004,-904,752,16700,136,-307,-22
5072000,-908,680,16688,109,-282,-37
5074000,-912,692,16688,103,-305,-16
5076000,-972,680,16792,125,-275,-8
5078000,-972,692,16708,110,-315,-20
5080000,-960,728,16488,145,-322,-7
5082000,-916,788,16668,130,-287,-13
5084000,-980,644,16684,118,-305,-43
5086000,-948,648,16744,107,-321,-27
5088000,-908,648,16660,117,-309,30
5090000,-916,644,16648,82,-303,-22
5092000,-920,708,16616,103,-312,-20
5094000,-920,776,16676,119,-317,-27
5096000,-868,708,16600,136,-305,-50
5098000,-884,668,16600,132,-277,-16
5100000,-952,716,16648,122,-298,-14
5102000,-912,672,16672,138,-305,-14
5104000,-944,784,16744,119,-293,-25
5106004,-896,760,16640,120,-318,-33
5108000,-928,724,16624,123,-290,15
5110004,-940,728,16704,115,-256,-22
5112000,-912,696,16620,124,-328,-10
5114000,-964,720,16680,135,-291,-8
5116000,-932,664,16564,132,-277,-38
5118000,-852,724,16740,104,-312,-36
5120000,-920,680,16684,116,-278,-24
5122000,-932,660,16648,95,-295,-27
5124000,-928,740,16640,83,-291,-22
5126000,-920,704,16564,130,-267,-58
5128000,-920,692,16628,121,-281,1
5130000,-856,708,16684,115,-286,-9
5132000,-924,740,16588,143,-292,-50
5134000,-948,652,16680,102,-305,-48
5136000,-896,696,16740,105,-272,-31
5138000,-940,672,16624,132,-293,4
5140000,-868,740,16664,127,-262,-19
5142000,-956,724,16644,153,-306,-1
5144000,-884,668,16648,124,-308,-12
5146000,-908,680,16640,107,-284,-46
5148000,-936,696,16664,94,-283,-31
5150000,-940,732,16624,103,-294,4
5152000,-968,688,16660,130,-281,-30
5154000,-920,644,16572,76,-287,-10
5156000,-928,696,16644,107,-269,-12
5158000,-980,692,16652,118,-287,-7
5160000,-1016,692,16704,110,-311,-40
5162000,-888,652,16700,122,-287,-14
5164000,-920,720,16760,115,-270,1
5166000,-908,656,16612,115,-306,2
5168000,-972,664,16604,120,-298,-22
5170000,-916,764,16676,136,-316,-21
5172000,-972,660,16584,110,-267,-21
5174000,-892,600,16568,77,-286,-20
5176004,-960,700,16652,118,-300,-5
5178000,-908,640,16620,144,-251,-28
5180004,-956,676,16600,97,-262,-3
5182000,-932,680,16740,107,-279,-3
5184000,-952,648,16684,116,-313,-37
5186000,-1040,588,16712,97,-328,-10
5188000,-956,660,16672,124,-309,0
5190000,-956,636,16668,101,-306,-7
5192000,-960,624,16752,137,-291,-23
5194004,-996,640,16564,142,-273,-9
5196000,-952,688,16644,111,-293,-19
5198000,-956,604,16628,149,-332,5
5200004,-912,648,16692,95,-301,-19
5202000,-988,664,16796,120,-295,-60
5204000,-980,612,16676,98,-306,4
5206000,-916,668,16636,150,-302,-36
5208000,-908,660,16612,125,-296,-26
5210000,-896,692,16772,89,-300,-7
5212000,-924,712,16708,119,-279,-29
5214000,-916,764,16684,121,-319,18
5216000,-908,696,16584,131,-273,-16
5218000,-892,776,16740,109,-262,-3
5220000,-844,772,16636,94,-325,-31
5222000,-860,796,16652,111,-316,-24
5224000,-776,788,16444,105,-282,-45
5226000,-804,776,16628,151,-298,0
5228000,-768,688,16716,109,-296,-36
5230000,-892,840,16644,132,-319,-32
5232000,-816,796,16720,121,-288,2
5234000,-752,796,16640,122,-262,0
5236004,-892,792,16716,95,-303,-16
5238008,-824,728,16764,96,-325,-37
5240000,-844,720,16480,117,-294,-32
5242000,-856,776,16744,103,-266,-35
5244000,-876,708,16556,92,-309,9
5246000,-884,616,16560,112,-268,-53
5248000,-836,648,16760,133,-307,-71
5250000,-904,624,16752,103,-311,-27
5252000,-852,728,16568,109,-300,-44
5254000,-860,716,16672,111,-276,-38
5256000,-964,712,16576,117,-253,-16
5258000,-944,756,16716,97,-299,0
5260000,-956,732,16712,108,-297,-26
5262000,-900,680,16460,91,-294,-31
5264000,-948,700,16668,113,-294,-27
5266000,-1044,784,16640,122,-299,-15
5268000,-900,776,16552,130,-287,-35
5270000,-992,808,16740,121,-313,-21
5272000,-968,788,16592,157,-289,-48
5274004,-988,788,16720,110,-269,-16
5276000,-916,776,16616,79,-287,-7
5278000,-996,784,16576,119,-283,24
5280000,-996,780,16560,95,-297,-17
5282000,-876,884,16564,71,-299,-14
5284000,-900,748,16568,93,-282,-11
5286000,-856,788,16616,117,-304,-21
5288000,-928,724,16588,117,-305,-27
5290000,-896,836,16632,100,-296,13
5292000,-844,736,16608,71,-291,-36
5294000,-880,748,16604,110,-296,-7
5296000,-848,784,16480,99,-314,-11
5298004,-892,764,16628,87,-273,4
5300000,-928,716,16672,74,-289,1
5302000,-860,716,16660,129,-307,-25
5304000,-944,684,16476,109,-290,-16
5306004,-904,716,16608,93,-257,-22
5308000,-856,692,16728,113,-255,-25
5310000,-916,740,16732,107,-321,-22
5312000,-876,692,16616,116,-305,-22
5314000,-952,696,16724,83,-263,-1
5316000,-952,676,16780,125,-283,-8
5318000,-948,672,16676,110,-300,-30
5320000,-908,632,16648,89,-255,-13
5322000,-896,668,16624,96,-267,-30
5324000,-968,636,16724,130,-267,4
5326000,-908,624,16604,142,-280,-14
5328004,-964,648,16640,99,-294,-51
5330000,-960,624,16692,154,-283,-26
5332000,-976,684,16612,82,-294,-24
5334000,-916,672,16632,93,-300,4
5336000,-1044,608,16692,113,-294,-54
5338004,-964,632,16676,130,-264,-13
5340000,-992,640,16772,89,-290,-30
5342000,-964,612,16704,121,-261,-18
5344000,-988,628,16668,101,-281,-43
5346000,-960,608,16660,110,-290,-9
5348000,-980,660,16720,95,-304,-13
5350000,-928,644,16576,135,-317,-1
5352000,-944,676,16676,124,-287,-34
5354000,-968,660,16608,116,-277,-18
5356000,-932,512,16616,134,-248,-3
5358000,-908,656,16668,104,-292,-37
5360000,-876,700,16636,99,-284,-4
5362000,-856,712,16616,100,-289,-3
5364000,-904,676,16744,114,-292,-22
5366008,-908,644,16784,118,-287,7
5368004,-860,644,16656,142,-235,2
5370000,-924,676,16664,107,-300,-27
5372000,-920,708,16712,156,-314,-41
5374000,-924,716,16768,128,-286,-38
5376000,-956,628,16624,90,-271,-25
5378000,-924,660,16656,141,-298,-24
5380000,-916,704,16644,116,-304,-10
5382000,-960,664,16736,100,-290,-25
5384000,-916,644,16736,111,-312,-13
5386004,-960,668,16696,105,-285,5
5388000,-1064,548,16608,89,-258,-25
5390000,-888,700,16640,116,-303,-41
5392000,-1092,588,16664,102,-283,-26
5394000,-916,680,16736,107,-316,-9
5396000,-964,688,16668,121,-288,-3
5398000,-944,708,16632,135,-327,-41
5400000,-936,660,16632,126,-335,-38
5402004,-928,700,16680,114,-321,4
5404000,-924,692,16704,96,-323,-17
5406000,-924,720,16688,109,-272,11
5408000,-944,612,16668,125,-329,-18
5410000,-948,696,16672,107,-332,-38
5412000,-848,712,16688,138,-275,-6
5414000,-876,740,16620,123,-292,-23
5416000,-864,788,16684,137,-314,-8
5418000,-884,740,16572,133,-288,0
5420000,-912,708,16692,148,-308,-28
5422000,-912,764,16704,153,-335,-5
5424000,-852,732,16704,104,-347,-24
5426004,-836,784,16628,115,-304,-39
5428000,-844,808,16540,94,-273,-10
5430000,-840,860,16616,139,-300,-22
5432000,-856,744,16660,109,-274,-18
5434004,-892,780,16624,102,-311,-20
5436000,-916,788,16680,113,-288,-37
5438000,-884,712,16516,103,-273,-14
5440000,-932,688,16548,93,-300,-23
5442000,-980,724,16568,139,-286,-41
5444000,-980,708,16584,118,-300,-20
5446000,-944,700,16640,110,-266,-1
5448000,-948,680,16724,113,-291,-29
5450000,-1068,728,16688,95,-305,-10
5452000,-976,736,16620,112,-300,-11
5454000,-940,688,16676,147,-322,-26
5456000,-936,696,16572,112,-282,-20
5458000,-896,760,16568,101,-295,-22
5460000,-896,844,16620,133,-310,-40
5462000,-868,804,16564,117,-299,-9
5464000,-896,784,16580,123,-291,-8
5466000,-944,792,16696,76,-259,-23
5468000,-988,792,16596,143,-282,-13
5470000,-932,760,16596,121,-302,-24
5472000,-880,776,16668,92,-294,-44
5474000,-888,784,16680,144,-327,26
5476000,-932,768,16696,127,-317,-13
5478000,-832,756,16720,85,-305,-23
5480000,-872,740,16628,104,-266,-58
5482000,-832,644,16624,103,-299,-50
5484000,-888,728,16776,121,-269,-12
5486000,-880,672,16632,102,-300,-26
5488000,-856,660,16652,108,-281,-36
5490004,-872,668,16612,94,-271,-15
5492000,-860,676,16620,103,-280,-11
5494004,-864,732,16692,121,-261,-21
5496000,-820,680,16620,86,-276,-6
5498000,-924,652,16588,90,-279,-12
5500000,-876,640,16520,121,-284,-16
5502000,-860,664,16596,134,-307,-29
5504000,-920,676,16640,117,-280,-13
5506000,-892,656,16652,131,-277,-41
5508000,-924,664,16692,117,-297,-44
5510000,-888,664,16740,88,-286,-39
5512000,-896,656,16828,125,-295,-16
5514000,-932,720,16684,105,-310,-36
5516000,-940,636,16688,124,-293,-33
5518000,-932,664,16648,109,-285,-5
5520000,-992,700,16772,92,-287,-31
5522000,-992,660,16588,110,-259,-54
5524000,-1020,660,16564,137,-287,-13
5526000,-972,656,16572,123,-294,-17
5528000,-912,728,16592,87,-285,-15
5530000,-932,660,16648,111,-285,-45
5532000,-936,676,16548,77,-293,-32
5534000,-868,716,16560,126,-323,-29
5536000,-940,660,16620,133,-307,-37
5538004,-876,648,16668,90,-309,-19
5540000,-948,724,16736,137,-281,-17
5542000,-1004,644,16784,130,-259,-38
5544000,-940,708,16848,130,-289,-9
5546000,-908,624,16800,115,-332,-28
5548000,-948,668,16724,112,-268,-27
5550000,-912,588,16736,132,-324,-26
5552000,-916,600,16680,125,-248,9
5554000,-956,664,16624,114,-271,-22
5556000,-864,660,16568,117,-278,-25
5558000,-960,664,16552,119,-292,4
5560004,-940,684,16564,125,-288,-9
5562004,-908,632,16548,103,-250,-2
5564004,-904,672,16516,96,-294,-43
5566000,-920,744,16608,139,-275,-10
5568000,-868,740,16584,150,-292,-4
5570004,-888,780,16668,99,-304,-17
5572000,-928,760,16580,120,-287,-57
5574000,-884,704,16712,91,-275,-9
5576000,-876,676,16636,81,-293,-1
5578004,-884,704,16616,108,-282,9
5580000,-956,776,16772,108,-291,-35
5582000,-888,664,16780,107,-303,0
5584000,-992,740,16748,119,-281,-32
5586000,-928,672,16696,114,-316,-38
5588000,-972,692,16648,99,-307,-14
5590000,-852,660,16780,116,-297,1
5592000,-900,724,16680,116,-286,5
5594004,-884,704,16716,102,-308,-12
5596000,-868,672,16628,106,-278,-51
5598000,-880,732,16560,92,-276,-46
5600000,-892,756,16544,103,-285,3
5602000,-848,720,16616,93,-275,-16
5604000,-916,716,16564,133,-297,-7
5606000,-952,708,16576,138,-301,-12
5608000,-924,736,16652,108,-288,-22
5610000,-924,780,16836,99,-310,-50
5612000,-960,768,16724,116,-295,6
5614000,-908,772,16708,136,-276,-2
5616000,-932,712,16600,70,-278,-2
5618000,-944,728,16716,113,-305,-6
5620000,-920,696,16652,108,-265,-15
5622008,-940,712,16588,73,-272,-7
5624004,-972,712,16696,133,-295,-20
5626000,-944,704,16584,120,-267,-23
5628000,-928,732,16488,114,-279,-36
5630000,-884,648,16732,89,-307,-11
5632000,-972,724,16684,101,-298,-12
5634000,-956,712,16564,118,-307,-24
5636000,-868,792,16692,129,-285,-30
5638000,-964,692,16624,120,-264,-21
5640000,-844,696,16612,124,-296,-4
5642000,-872,632,16636,106,-282,-40
5644000,-916,744,16632,92,-266,17
5646000,-812,708,16644,124,-318,-29
5648004,-904,712,16572,129,-292,-4
5650000,-964,736,16620,107,-288,-27
5652000,-860,700,16712,108,-285,-41
5654000,-892,696,16668,126,-269,-6
5656004,-892,700,16636,101,-308,-14
5658000,-996,704,16776,122,-298,-11
5660000,-932,668,16668,110,-273,-2
5662000,-932,720,16712,121,-305,-26
5664000,-940,692,16708,116,-266,-21
5666004,-932,760,16656,104,-268,-27
5668000,-864,696,16516,113,-312,-44
5670000,-916,764,16628,106,-283,-33
5672000,-872,696,16604,124,-288,-26
5674000,-892,748,16636,131,-332,-42
5676000,-888,788,16624,94,-315,-16
5678000,-924,752,16584,108,-286,-18
5680000,-924,696,16588,100,-293,-62
5682000,-948,652,16632,89,-314,-7
5684000,-960,728,16612,87,-284,-6
5686000,-928,696,16676,141,-279,-31
5688004,-964,696,16644,132,-293,-47
5690000,-920,668,16764,116,-288,-20
5692004,-948,648,16712,125,-286,4
5694000,-924,636,16568,128,-256,-24
5696000,-944,696,16696,110,-298,-7
5698000,-920,712,16704,81,-277,-26
5700000,-960,624,16704,113,-270,-58
5702000,-924,652,16584,98,-306,-6
5704000,-960,704,16644,132,-313,-13
5706000,-892,644,16620,124,-261,-7
5708000,-856,700,16648,120,-322,-15
5710000,-896,708,16708,111,-310,-24
5712004,-900,736,16668,107,-280,-26
5714000,-896,664,16624,83,-271,-43
5716000,-932,712,16652,144,-269,-17
5718000,-924,716,16636,100,-293,-29
5720000,-996,728,16632,129,-287,-28
5722000,-948,672,16704,148,-286,8
5724000,-948,728,16704,88,-311,-4
5726000,-936,712,16712,117,-303,-9
5728000,-904,672,16728,154,-282,-49
5730000,-872,692,16620,91,-285,-24
5732000,-892,660,16700,145,-314,7
5734000,-944,716,16672,100,-287,-16
5736000,-812,684,16628,135,-270,-8
5738000,-908,684,16584,127,-282,-43
5740000,-880,668,16672,83,-287,-9
5742000,-912,672,16700,121,-296,-3
5744000,-920,664,16680,125,-283,-1
5746004,-820,696,16732,108,-298,-57
5748000,-984,736,16720,115,-312,-14
5750004,-920,672,16668,108,-284,-34
5752000,-904,712,16688,85,-300,-21
5754000,-916,696,16688,108,-290,-13
5756000,-940,688,16720,97,-298,-27
5758000,-912,744,16604,121,-296,4
5760000,-956,692,16688,121,-284,-44
5762000,-904,712,16588,88,-289,-49
5764000,-900,728,16720,104,-285,3
5766000,-944,664,16636,113,-283,-13
5768000,-892,692,16576,124,-289,-12
5770000,-920,660,16608,115,-292,2
5772000,-904,696,16740,116,-287,-7
5774000,-948,696,16728,127,-299,3
5776000,-900,756,16716,98,-299,-7
5778000,-900,728,16616,135,-296,-38
5780000,-912,612,16720,143,-300,-40
5782000,-944,720,16624,130,-293,-4
5784000,-948,696,16768,126,-294,7
5786000,-952,700,16652,116,-290,-38
5788000,-932,696,16644,95,-272,-10
5790000,-932,684,16676,80,-290,29
5792000,-940,644,16664,100,-326,-22
5794000,-860,696,16520,123,-289,-7
5796000,-940,756,16664,84,-290,-10
5798000,-972,732,16764,97,-296,-14
5800000,-916,720,16684,110,-293,-25
5802000,-864,720,16624,91,-289,11
5804000,-864,740,16612,110,-283,-17
5806000,-916,724,16648,113,-302,-11
5808000,-924,804,16688,108,-313,-30
5810000,-896,696,16796,113,-254,-36
5812000,-956,680,16676,65,-313,-47
5814000,-940,812,16556,154,-296,-24
5816004,-888,744,16752,100,-293,9
5818000,-964,688,16688,96,-299,-22
5820004,-936,704,16676,97,-322,5
5822000,-944,640,16628,124,-321,-40
5824000,-956,732,16596,117,-316,-39
5826000,-948,660,16688,133,-253,-29
5828000,-856,712,16576,127,-285,-54
5830000,-868,648,16628,117,-291,-37
5832000,-836,700,16568,95,-298,-20
5834000,-896,696,16648,159,-287,-12
5836000,-912,684,16736,129,-303,-22
5838000,-908,672,16768,113,-265,-13
5840004,-960,712,16648,110,-324,7
5842000,-928,680,16588,111,-286,-18
5844000,-888,732,16700,72,-286,-27
5846000,-892,700,16680,121,-309,-39
5848000,-900,708,16644,87,-274,0
5850000,-916,668,16564,95,-286,-19
5852000,-944,668,16620,126,-278,-15
5854000,-932,684,16660,98,-284,-49
5856000,-936,700,16548,127,-298,-35
5858000,-876,720,16604,102,-260,-3
5860000,-956,692,16640,111,-271,-11
5862000,-968,688,16692,143,-263,-31
5864000,-960,688,16736,84,-286,-30
5866000,-940,696,16632,122,-310,-22
5868000,-904,680,16636,106,-267,-56
5870000,-972,724,16676,91,-335,-22
5872000,-980,692,16664,128,-301,-50
5874004,-912,748,16736,141,-286,-14
5876000,-896,696,16600,91,-259,14
5878004,-920,744,16652,174,-317,-17
5880000,-920,668,16680,148,-299,-16
5882000,-904,660,16640,118,-264,-22
5884000,-916,692,16708,119,-262,-62
5886000,-848,652,16628,157,-292,-34
5888000,-868,676,16692,105,-264,-13
5890000,-952,728,16720,131,-289,-19
5892000,-932,704,16608,128,-281,-26
5894000,-948,704,16620,122,-325,-9
5896000,-976,676,16496,95,-314,-40
5898000,-944,700,16752,113,-269,-3
5900000,-932,652,16628,116,-265,-7
5902000,-888,716,16632,144,-278,-20
5904000,-872,716,16680,135,-268,-44
5906000,-896,696,16600,124,-307,-19
5908000,-904,692,16616,113,-292,-31
5910000,-944,696,16648,112,-294,-26
5912000,-908,680,16584,145,-281,-32
5914000,-948,676,16464,116,-276,-31
5916000,-996,676,16668,121,-291,-20
5918000,-884,680,16548,144,-294,-19
5920000,-892,700,16660,90,-279,14
5922000,-904,672,16552,114,-289,-10
5924000,-960,740,16616,111,-343,-20
5926000,-936,704,16520,101,-308,-10
5928000,-924,712,16748,119,-297,1
5930000,-936,736,16612,119,-288,-20
5932000,-892,720,16648,119,-314,-1
5934000,-924,796,16652,138,-308,-9
5936000,-916,692,16624,100,-313,7
5938000,-936,664,16688,109,-304,5
5940000,-916,668,16744,134,-289,-24
5942000,-936,672,16576,119,-294,-6
5944004,-944,624,16652,119,-302,-7
5946000,-872,672,16660,106,-270,-13
5948004,-952,724,16596,113,-306,-6
5950000,-956,680,16680,123,-319,-51
5952000,-860,756,16576,99,-312,-33
5954000,-888,684,16536,109,-303,-24
5956000,-928,756,16656,133,-310,-31
5958000,-928,672,16728,129,-271,-3
5960000,-948,796,16664,116,-287,-1
5962004,-920,692,16548,123,-300,-32
5964000,-944,680,16736,127,-286,-14
5966000,-960,728,16812,105,-320,-18
5968004,-920,684,16704,108,-289,-23
5970000,-908,752,16660,112,-277,-13
5972000,-968,752,16668,115,-309,-12
5974000,-920,688,16740,126,-340,-2
5976000,-892,660,16680,123,-299,-35
5978004,-880,684,16456,84,-267,-18
5980000,-952,728,16704,119,-259,-32
5982000,-976,684,16644,122,-324,-42
5984000,-872,720,16708,128,-320,3
5986000,-936,696,16560,98,-314,-7
5988000,-924,736,16628,131,-317,4
5990000,-892,648,16680,107,-293,-26
5992000,-828,712,16788,95,-292,-43
5994000,-872,708,16628,123,-287,-29
5996000,-856,740,16640,82,-319,30
5998000,-948,732,16636,91,-311,-13
6000000,-940,728,16684,127,-260,-15
6002000,-944,660,16580,95,-303,-21
6004000,-908,784,16580,124,-279,-19
6006008,-928,704,16780,89,-294,-16
6008004,-940,752,16632,139,-271,-18
6010000,-936,756,16596,121,-311,-47
6012000,-940,692,16620,110,-303,-9
6014000,-880,752,16688,137,-289,-24
6016000,-900,728,16672,111,-283,-34
6018000,-984,752,16656,105,-286,-19
6020000,-908,688,16636,135,-289,-2
6022000,-864,680,16652,79,-257,0
6024000,-892,752,16692,67,-295,25
6026000,-908,720,16660,124,-288,-42
6028000,-820,756,16632,89,-289,-27
6030000,-952,716,16704,94,-304,-3
6032000,-948,732,16676,128,-291,-1
6034000,-992,744,16700,113,-310,-21
6036000,-916,700,16656,131,-328,-46
6038000,-980,772,16596,149,-275,-7
6040000,-916,696,16604,100,-244,-24
6042004,-872,708,16728,112,-270,-35
6044000,-936,704,16632,136,-279,-23
6046000,-884,680,16660,112,-292,3
6048000,-904,668,16644,99,-304,-20
6050000,-912,764,16692,95,-318,13
6052000,-952,640,16740,131,-280,-6
6054000,-960,720,16608,104,-287,-11
6056000,-984,696,16712,128,-290,-14
6058000,-928,736,16656,138,-292,-50
6060000,-888,672,16668,117,-323,-37
6062000,-900,716,16608,86,-282,14
6064000,-896,636,16672,125,-307,-12
6066000,-828,720,16680,111,-312,-21
6068000,-920,716,16704,92,-296,-30
6070000,-900,644,16700,132,-268,-66
6072000,-904,692,16600,88,-313,9
6074000,-912,700,16672,116,-306,7
6076000,-912,704,16684,125,-295,29
6078000,-976,720,16700,93,-265,-19
6080000,-964,648,16596,125,-302,-33
6082000,-928,680,16568,112,-308,-35
6084000,-864,708,16704,128,-301,-22
6086000,-908,724,16756,141,-304,-16
6088004,-928,652,16568,97,-276,-7
6090000,-952,724,16456,143,-317,-24
6092000,-884,688,16640,116,-293,-13
6094000,-896,684,16728,114,-287,-17
6096000,-908,688,16676,122,-283,-25
6098000,-944,676,16556,116,-261,22
6100000,-912,696,16664,95,-317,0
6102000,-952,712,16764,139,-277,-27
6104000,-896,708,16800,111,-328,-21
6106004,-996,652,16676,111,-298,9
6108000,-904,596,16684,106,-291,-7
6110000,-912,688,16636,111,-294,12
6112000,-956,704,16604,113,-323,-57
6114000,-940,608,16584,142,-267,7
6116000,-940,688,16596,123,-298,-40
6118000,-912,672,16660,98,-291,-29
6120000,-944,660,16636,85,-298,0
6122000,-936,676,16640,120,-283,-28
6124000,-992,612,16700,109,-287,-22
6126000,-1028,684,16684,106,-308,11
6128000,-908,732,16740,119,-288,-12
6130000,-944,708,16652,115,-269,-7
6132000,-928,660,16656,78,-316,4
6134008,-940,716,16648,150,-307,-36
6136004,-964,640,16604,121,-272,-26
6138000,-980,688,16696,144,-267,-54
6140000,-916,640,16620,121,-298,-27
6142000,-956,660,16640,112,-281,1
6144000,-896,644,16712,95,-326,4
6146000,-920,660,16640,116,-286,-29
6148000,-976,700,16632,130,-271,12
6150000,-892,708,16660,118,-293,-23
6152000,-844,644,16656,105,-273,33
6154000,-884,696,16680,133,-322,-20
6156000,-960,728,16656,116,-319,15
6158000,-892,704,16660,91,-313,-21
6160000,-892,688,16688,97,-295,-16
6162000,-912,704,16676,139,-307,-4
6164000,-964,692,16624,112,-311,-9
6166000,-868,716,16688,131,-270,-15
6168000,-960,772,16712,108,-253,-24
6170000,-880,708,16628,95,-291,-19
6172000,-952,708,16744,92,-293,-13
6174000,-940,676,16740,127,-313,-48
6176000,-988,720,16712,149,-268,-10
6178000,-924,692,16608,117,-298,-15
6180000,-924,744,16644,114,-310,-31
6182000,-912,676,16820,115,-314,-7
6184000,-904,664,16672,99,-312,-2
6186000,-932,648,16632,106,-284,-37
6188000,-876,704,16684,127,-306,-12
6190000,-900,688,16620,103,-302,-20
6192000,-924,680,16672,80,-287,-5
6194000,-852,656,16600,111,-298,-20
6196000,-884,712,16584,117,-316,-30
6198000,-836,748,16624,139,-271,-17
6200000,-952,708,16628,123,-276,-3
6202000,-872,760,16608,159,-301,-12
6204004,-828,716,16632,99,-280,-20
6206000,-924,732,16620,101,-262,-23
6208000,-880,672,16704,125,-282,-31
6210000,-896,736,16620,119,-311,-44
6212000,-852,796,16568,153,-301,-40
6214000,-924,728,16652,105,-270,-36
6216000,-872,712,16740,95,-287,-54
6218004,-928,760,16760,113,-293,-6
6220000,-924,744,16596,91,-282,-7
6222000,-948,660,16556,119,-280,-2
6224004,-932,700,16672,101,-268,-13
6226000,-928,728,16656,107,-267,-35
6228000,-924,744,16660,132,-301,-2
6230000,-860,704,16736,111,-305,11
6232000,-888,660,16804,107,-278,-34
6234004,-912,708,16660,130,-320,-27
6236000,-928,724,16516,97,-300,-19
6238000,-916,672,16724,125,-281,-18
6240000,-884,676,16636,118,-300,-34
6242000,-928,696,16612,108,-296,-34
6244000,-972,748,16776,151,-287,0
6246000,-868,704,16612,126,-277,-19
6248000,-928,716,16544,119,-298,-26
6250000,-956,724,16700,86,-253,-29
6252000,-912,744,16652,106,-302,-17
6254000,-948,724,16568,159,-325,21
6256000,-932,688,16676,100,-278,-33
6258000,-964,704,16660,104,-293,-56
6260000,-892,752,16588,102,-280,-1
6262008,-888,700,16828,122,-284,-24
6264000,-912,680,16696,122,-278,-64
6266000,-852,696,16580,117,-296,-9
6268000,-844,768,16636,129,-262,-21
6270000,-860,724,16648,127,-279,14
6272004,-872,644,16560,111,-274,-43
6274000,-848,708,16548,118,-290,-20
6276000,-912,720,16680,139,-281,-42
6278000,-968,664,16720,123,-290,-23
6280000,-912,704,16776,111,-338,-20
6282000,-960,780,16700,104,-321,-10
6284000,-900,696,16588,108,-288,6
6286000,-924,700,16564,119,-306,11
6288000,-960,764,16652,94,-296,-38
6290000,-936,700,16696,144,-278,-26
6292000,-936,708,16560,133,-285,-6
6294000,-996,688,16700,109,-274,-4
6296000,-896,676,16768,115,-307,3
6298000,-968,676,16672,114,-281,18
6300000,-1008,668,16688,77,-341,-31
6302000,-868,628,16536,117,-307,-24
6304000,-896,624,16576,150,-268,-3
6306000,-956,716,16584,129,-266,0
6308000,-876,640,16672,132,-279,-6
6310000,-908,716,16700,111,-311,-7
6312000,-880,696,16672,113,-283,-16
6314000,-908,692,16648,114,-284,-33
6316000,-928,676,16640,121,-270,-4
6318000,-864,692,16620,104,-275,0
6320000,-880,672,16560,70,-296,-6
6322000,-944,676,16608,134,-296,-14
6324000,-908,656,16628,128,-301,-35
6326000,-940,680,16580,109,-320,-13
6328004,-920,760,16716,108,-270,3
6330000,-956,740,16700,89,-279,-21
6332004,-964,656,16652,125,-281,-55
6334000,-932,664,16596,122,-288,-23
6336000,-928,668,16596,123,-293,-11
6338000,-916,664,16672,111,-283,-44
6340000,-968,708,16732,116,-285,7
6342000,-920,720,16728,100,-295,-15
6344000,-924,748,16624,140,-298,-46
6346004,-920,676,16576,106,-271,21
6348000,-980,764,16704,78,-324,-15
6350000,-992,652,16704,127,-297,-38
6352000,-964,680,16636,132,-254,-6
6354000,-960,696,16612,104,-290,4
6356000,-920,660,16656,108,-272,3
6358000,-944,736,16712,112,-276,-8
6360000,-876,664,16664,95,-297,2
6362000,-860,716,16772,106,-311,9
6364000,-920,704,16576,100,-307,-49
6366000,-1000,636,16644,136,-254,-7
6368000,-908,744,16608,133,-284,-24
6370000,-904,712,16588,128,-305,-19
6372000,-976,720,16644,140,-315,-14
6374000,-900,776,16664,121,-291,-18
6376000,-916,724,16564,120,-280,-3
6378000,-892,708,16540,125,-295,-44
6380000,-892,784,16596,111,-272,-24
6382000,-984,668,16572,129,-332,-15
6384000,-940,656,16532,101,-305,-6
6386000,-948,760,16488,113,-298,10
6388000,-924,756,16712,111,-292,-22
6390008,-976,700,16684,111,-290,-10
6392000,-884,740,16680,110,-294,-37
6394000,-936,780,16656,107,-299,39
6396000,-948,660,16576,99,-308,-16
6398000,-968,728,16636,128,-290,-25
6400000,-928,700,16628,119,-266,-31
6402000,-912,712,16652,123,-319,-23
6404000,-992,688,16732,114,-307,-24
6406000,-956,676,16740,117,-304,-20
6408000,-1036,648,16656,141,-307,-15
6410000,-992,724,16640,123,-300,7
6412000,-960,648,16652,117,-291,-14
6414000,-916,684,16692,142,-280,-21
6416000,-1032,760,16612,121,-281,-34
6418000,-900,640,16604,88,-281,7
6420000,-1036,740,16580,138,-291,-10
6422000,-876,672,16612,128,-259,-33
6424000,-928,748,16696,105,-310,-12
6426004,-916,776,16580,88,-306,-6
6428000,-956,652,16720,127,-274,-20
6430000,-948,720,16752,105,-304,-20
6432000,-888,712,16652,166,-275,-32
6434000,-940,744,16616,113,-318,-16
6436000,-948,748,16700,109,-313,-29
6438000,-916,720,16624,121,-274,-7
6440000,-944,688,16620,107,-261,-3
6442000,-896,700,16680,128,-310,-17
6444000,-848,680,16648,109,-296,-29
6446000,-856,688,16656,118,-314,-17
6448000,-936,688,16692,122,-277,-40
6450000,-928,664,16644,113,-285,17
6452000,-896,736,16660,110,-278,-44
6454000,-916,688,16760,90,-320,-31
6456000,-908,696,16740,103,-272,-7
6458004,-872,700,16708,100,-292,-14
6460000,-948,688,16660,108,-252,-29
6462000,-896,712,16584,96,-292,-7
6464000,-928,688,16656,110,-295,-7
6466000,-880,724,16632,122,-281,-24
6468000,-888,692,16652,109,-304,-62
6470000,-1000,728,16600,93,-294,-16
6472000,-940,752,16644,120,-317,-6
6474000,-936,784,16672,118,-268,-13
6476000,-896,672,16600,123,-314,8
6478000,-908,736,16564,106,-302,-32
6480004,-984,752,16672,111,-284,-10
6482000,-876,648,16736,151,-307,-19
6484000,-988,812,16764,76,-278,-61
6486000,-964,724,16520,115,-281,-41
6488000,-908,748,16680,102,-326,-1
6490000,-984,684,16692,132,-307,8
6492000,-988,652,16812,142,-303,-44
6494000,-948,740,16764,140,-261,5
6496000,-952,716,16668,122,-274,-47
6498000,-920,700,16624,112,-278,-54
6500000,-980,668,16732,121,-307,-1
6502000,-920,680,16680,106,-285,-42
6504000,-884,624,16692,103,-296,-15
6506000,-896,648,16624,125,-270,0
6508000,-884,660,16580,123,-297,-33
6510000,-908,648,16704,140,-308,-13
6512000,-988,696,16684,104,-299,5
6514000,-884,676,16716,118,-282,-33
6516000,-972,712,16632,128,-348,-37
6518008,-960,760,16732,115,-291,-27
6520000,-912,676,16668,108,-280,7
6522000,-928,692,16672,86,-287,-34
6524000,-904,684,16680,82,-309,-37
6526000,-916,696,16660,99,-318,-5
6528000,-980,672,16676,110,-298,-32
6530000,-932,720,16752,114,-333,6
6532000,-924,724,16636,146,-286,-12
6534000,-868,648,16712,112,-293,-1
6536000,-924,696,16636,97,-307,-7
6538004,-984,660,16736,133,-328,-28
6540000,-856,704,16680,112,-273,9
6542000,-992,752,16624,120,-305,-8
6544000,-912,648,16676,101,-263,-13
6546000,-916,740,16740,128,-297,-7
6548000,-952,676,16732,96,-292,-19
6550000,-864,724,16672,123,-295,-8
6552000,-940,684,16668,104,-298,-16
6554004,-920,712,16660,122,-315,-17
6556000,-972,704,16616,126,-291,-13
6558000,-976,724,16588,141,-278,-6
6560000,-912,736,16708,135,-298,-21
6562000,-952,744,16620,73,-277,-5
6564000,-864,676,16672,138,-279,-52
6566000,-900,716,16660,105,-287,-1
6568000,-980,688,16616,91,-271,-29
6570000,-924,720,16640,90,-300,-30
6572004,-952,668,16740,116,-260,-24
6574000,-932,716,16616,131,-259,-38
6576000,-944,676,16608,118,-305,-22
6578000,-904,668,16616,142,-287,-23
6580000,-900,696,16584,98,-276,-1
6582000,-956,704,16684,124,-305,-14
6584000,-952,676,16620,76,-317,-8
6586000,-884,580,16596,111,-276,-36
6588004,-952,724,16692,113,-297,-14
6590000,-984,708,16684,94,-291,17
6592000,-916,680,16632,132,-263,-18
6594000,-924,700,16640,110,-303,-16
6596000,-892,668,16576,121,-289,-67
6598000,-984,772,16748,110,-299,-20
6600000,-900,640,16700,121,-316,-24
6602000,-908,688,16648,127,-287,-36
6604000,-964,740,16736,121,-299,-28
6606004,-832,680,16648,132,-291,-29
6608000,-988,724,16608,107,-275,-3
6610000,-864,688,16692,90,-304,-53
6612000,-892,708,16656,118,-285,4
6614000,-920,772,16612,88,-283,0
