micros,ax,ay,az,gx,gy,gz
0,-1444,2600,15756,-944,1889,-1597
2000,-1436,2660,15548,-1061,1982,-1656
4000,-1428,2580,15540,-1152,2061,-1718
6000,-1436,2508,15476,-1233,2055,-1771
8000,-1344,2360,15784,-1306,2098,-1824
10000,-1396,2348,15904,-1342,2092,-1893
12000,-1412,2328,16032,-1411,2066,-1974
14000,-1452,2240,15980,-1467,2056,-2006
16000,-1536,2192,16072,-1512,1994,-2044
18000,-1604,2188,16040,-1571,1997,-2110
20000,-1644,2164,16016,-1602,1928,-2144
22000,-1636,2144,16072,-1672,1917,-2181
24000,-1692,2152,16064,-1688,1905,-2233
26000,-1672,2032,16088,-1755,1821,-2261
28000,-1692,1960,16276,-1741,1761,-2285
30004,-1840,1992,16248,-1821,1688,-2307
32000,-1960,1956,16372,-1767,1643,-2280
34000,-1976,1836,16392,-1793,1556,-2295
36000,-2132,1924,16408,-1781,1442,-2292
38004,-2252,1912,16584,-1817,1332,-2272
40000,-2352,1892,16468,-1825,1201,-2239
42004,-2368,1964,16616,-1787,1037,-2196
44000,-2352,2036,16600,-1775,926,-2172
46004,-2488,2040,16592,-1792,816,-2129
48000,-2468,1984,16708,-1825,718,-2104
50000,-2544,2076,16812,-1769,595,-2046
52000,-2612,2144,16800,-1772,390,-1978
54000,-2492,2012,16740,-1767,349,-1934
56004,-2512,1852,16704,-1757,335,-1829
58000,-2596,1800,16860,-1727,245,-1773
60000,-2604,1732,16748,-1713,151,-1690
62000,-2492,1648,16640,-1695,166,-1593
64000,-2552,1596,16664,-1691,150,-1506
66000,-2676,1532,16672,-1624,106,-1387
68000,-2580,1524,16812,-1550,-10,-1307
70000,-2560,1528,16728,-1504,-61,-1202
72000,-2392,1560,16616,-1467,-80,-1087
74000,-2348,1560,16708,-1371,-172,-1017
76000,-2388,1520,16860,-1335,-265,-918
78000,-2264,1604,16788,-1301,-303,-815
80000,-2156,1492,16808,-1214,-367,-794
82000,-2140,1616,16744,-1180,-495,-738
84000,-1996,1516,16732,-1101,-580,-647
86000,-1928,1484,16776,-1029,-716,-590
88000,-1844,1488,16600,-938,-800,-532
90000,-1748,1384,16660,-901,-844,-451
92000,-1644,1356,16560,-796,-942,-443
94004,-1616,1408,16564,-715,-1043,-406
96000,-1556,1264,16636,-696,-1143,-385
98000,-1504,1340,16536,-627,-1253,-381
100000,-1444,1308,16480,-552,-1322,-360
102004,-1384,1380,16476,-516,-1387,-335
104000,-1300,1372,16460,-455,-1464,-359
106000,-1208,1360,16472,-433,-1528,-359
108000,-1168,1332,16380,-406,-1595,-421
110000,-1144,1336,16340,-382,-1616,-450
112000,-1072,1288,16368,-351,-1642,-438
114000,-1152,1320,16400,-325,-1690,-516
116000,-1128,1308,16336,-331,-1734,-556
118000,-1168,1304,16452,-364,-1740,-573
120000,-1160,1308,16420,-357,-1751,-623
122000,-1124,1300,16408,-347,-1708,-674
124000,-1144,1268,16408,-386,-1748,-718
126000,-1176,1268,16360,-338,-1719,-772
128000,-1176,1288,16348,-352,-1736,-819
130000,-1220,1276,16372,-383,-1699,-888
132000,-1284,1252,16308,-357,-1653,-949
134000,-1280,1244,16420,-397,-1597,-1002
136000,-1376,1284,16452,-388,-1548,-1024
138000,-1388,1276,16328,-411,-1523,-1082
140000,-1400,1276,16572,-436,-1416,-1134
142000,-1448,1252,16584,-414,-1374,-1170
144000,-1444,1272,16516,-423,-1273,-1247
146000,-1508,1336,16460,-408,-1144,-1294
148000,-1680,1332,16456,-407,-1066,-1337
150000,-1664,1384,16560,-368,-955,-1377
152000,-1704,1416,16576,-337,-825,-1413
154000,-1768,1404,16556,-312,-740,-1398
156004,-1744,1404,16508,-325,-615,-1449
158000,-1772,1432,16652,-229,-487,-1451
160000,-1788,1388,16540,-188,-357,-1460
162000,-1752,1376,16672,-160,-222,-1503
164000,-1792,1344,16720,-62,-139,-1507
166000,-1800,1336,16576,-20,-25,-1507
168000,-1828,1316,16548,76,100,-1515
170004,-1828,1188,16480,149,202,-1532
172000,-1796,1228,16528,211,293,-1567
174000,-1764,1200,16668,299,362,-1589
176000,-1732,1072,16516,389,423,-1571
178000,-1812,1052,16652,464,494,-1544
180000,-1772,988,16488,538,507,-1585
182000,-1740,920,16484,613,565,-1619
184000,-1564,912,16464,701,504,-1600
186000,-1724,756,16308,787,543,-1604
188000,-1792,808,16636,839,581,-1590
190000,-1712,816,16508,912,561,-1608
192000,-1696,784,16384,926,472,-1620
194000,-1656,776,16488,966,472,-1629
196000,-1612,816,16476,1017,454,-1641
198000,-1616,864,16464,1000,389,-1666
200000,-1508,848,16372,982,281,-1687
202000,-1508,840,16428,1014,242,-1715
204000,-1524,924,16344,1001,201,-1716
206000,-1480,852,16400,978,133,-1736
208000,-1504,976,16420,939,76,-1777
210000,-1500,908,16360,856,-12,-1782
212000,-1508,884,16308,834,-36,-1839
214000,-1536,912,16316,786,-75,-1833
216000,-1568,840,16280,685,-66,-1855
218004,-1592,892,16168,639,-152,-1892
220000,-1548,896,16300,524,-178,-1896
222004,-1600,824,16300,491,-130,-1896
224000,-1652,780,16284,436,-163,-1925
226000,-1732,700,16292,337,-173,-1941
228000,-1884,816,16272,403,-140,-1949
230000,-1936,1096,20144,688,-210,-1922
232004,-1940,628,15296,372,-461,-1915
234000,-2316,760,15664,203,-396,-1818
236000,-2080,388,16244,215,-312,-1806
238000,-2008,280,15996,156,-344,-1817
240000,-2072,248,16992,117,-379,-1841
242000,-1864,180,16624,117,-454,-1875
244000,-1700,88,16832,136,-479,-1905
246000,-1784,256,16852,104,-518,-1901
248000,-1864,456,16780,143,-543,-1881
250004,-2004,648,16808,100,-619,-1852
252000,-1888,608,16508,104,-613,-1795
254000,-1984,536,16568,141,-559,-1788
256000,-2044,452,16480,78,-514,-1770
258000,-1996,416,16404,60,-508,-1779
260000,-1888,344,16380,52,-475,-1742
262000,-1788,116,16216,26,-410,-1751
264000,-1792,48,16464,52,-310,-1772
266000,-1784,92,16548,61,-296,-1787
268000,-1756,148,16488,67,-271,-1815
270000,-1736,180,16228,105,-206,-1810
272000,-1668,180,16256,150,-92,-1826
274000,-1736,208,16288,149,-27,-1813
276000,-1728,144,16300,150,68,-1807
278000,-1716,144,16192,225,140,-1821
280000,-1632,132,16136,240,217,-1791
282000,-1740,72,16112,300,319,-1778
284004,-1748,32,16100,322,499,-1790
286000,-1692,-52,16060,331,508,-1767
288000,-1640,-44,16020,414,628,-1747
290000,-1656,-60,15940,437,799,-1770
292000,-1620,-40,15928,465,861,-1734
294000,-1580,-52,15932,474,1018,-1744
296000,-1628,-68,15856,528,1117,-1722
298004,-1604,32,15816,573,1214,-1693
300000,-1640,28,15984,621,1251,-1696
302000,-1580,-28,15824,626,1309,-1677
304000,-1604,-24,15908,652,1398,-1648
306000,-1664,48,15948,727,1487,-1611
308000,-1664,88,15844,732,1523,-1559
310000,-1652,84,15772,773,1553,-1525
312000,-1764,136,15804,796,1614,-1471
314000,-1736,72,15792,819,1646,-1470
316000,-1736,120,15812,845,1591,-1397
318000,-1792,128,15836,858,1575,-1354
320004,-1688,148,15888,860,1552,-1264
322000,-1764,336,15920,851,1501,-1243
324000,-1708,344,15900,924,1452,-1150
326000,-1696,240,15912,982,1389,-1078
328004,-1700,416,15904,1013,1296,-991
330000,-1744,300,15880,1059,1188,-932
332000,-1712,300,15728,1082,1092,-830
334000,-1676,320,15912,1130,966,-782
336000,-1616,288,15876,1113,859,-723
338000,-1532,236,15924,1158,732,-651
340000,-1544,244,15672,1180,634,-603
342000,-1512,248,15752,1201,479,-553
344000,-1436,196,15788,1195,366,-482
346000,-1424,240,15760,1279,234,-431
348000,-1436,236,15840,1255,150,-356
350004,-1360,184,15760,1268,-5,-313
352000,-1260,236,15764,1306,-146,-293
354000,-1168,236,15700,1336,-217,-237
356000,-1212,268,15732,1303,-344,-207
358000,-1048,188,15760,1303,-432,-181
360004,-1040,180,15588,1363,-545,-105
362000,-980,196,15636,1302,-599,-88
364000,-980,144,15616,1301,-665,-131
366000,-948,148,15584,1288,-728,-122
368000,-932,96,15616,1246,-752,-136
370000,-824,120,15472,1203,-761,-144
372000,-860,88,15540,1185,-738,-129
374000,-796,132,15564,1144,-696,-160
376000,-836,116,15408,1090,-649,-152
378000,-856,160,15452,1014,-567,-146
380000,-856,224,15456,958,-449,-157
382000,-868,284,15604,918,-372,-126
384000,-924,392,15572,830,-266,-142
386000,-832,332,15532,766,-135,-123
388000,-880,436,15492,695,11,-116
390000,-860,496,15552,617,143,-82
392000,-892,468,15660,547,233,-126
394000,-952,532,15736,464,353,-111
396000,-972,556,15696,425,494,-81
398004,-996,520,15712,373,583,-50
400000,-924,532,15776,316,686,-69
402000,-1020,556,15852,210,794,-32
404000,-1044,540,15984,169,861,-11
406000,-972,536,16032,143,932,14
408000,-984,564,15972,87,1025,61
410000,-1012,548,16092,23,1035,120
412000,-1004,576,16128,24,1069,163
414000,-1052,600,16180,-17,1066,212
416000,-1108,508,16208,-22,1036,297
418000,-956,476,16180,-62,1018,308
420000,-956,420,16316,-26,1032,381
422000,-936,360,16436,-23,932,454
424004,-956,316,16288,-46,886,507
426004,-840,296,16316,18,824,524
428000,-820,288,16332,16,675,616
430000,-912,204,16348,26,620,649
432000,-828,172,16388,19,557,705
434000,-700,68,16360,63,374,737
436000,-692,60,16440,68,304,770
438000,-688,52,16412,73,161,774
440004,-564,-132,16336,65,-9,829
442000,-572,-132,16368,38,-128,876
444000,-484,-228,16452,57,-261,881
446000,-380,-328,16416,16,-374,891
448004,-276,-372,16476,-14,-513,936
450000,-228,-380,16568,-30,-629,935
452000,-236,-464,16504,-113,-727,959
454000,-164,-464,16536,-149,-829,945
456004,-52,-452,16556,-192,-976,925
458000,44,-564,16332,-258,-1087,897
460000,12,-532,16532,-335,-1117,896
462000,88,-548,16528,-388,-1250,847
464000,64,-556,16540,-482,-1351,799
466000,124,-616,16580,-580,-1426,782
468000,80,-672,16544,-681,-1511,709
470000,112,-708,16676,-743,-1578,709
472000,152,-732,16660,-885,-1706,643
474000,160,-824,16580,-983,-1722,617
476000,156,-872,16780,-1120,-1787,558
478004,188,-828,16652,-1257,-1858,478
480000,72,-848,16916,-1366,-1888,430
482000,148,-844,16784,-1486,-1954,393
484000,132,-796,16928,-1656,-2026,369
486000,172,-928,16840,-1775,-2074,322
488004,208,-836,16828,-1899,-2132,264
490000,116,-904,17120,-2044,-2131,183
492000,224,-876,17088,-2125,-2141,182
494000,148,-828,17032,-2280,-2175,106
496000,176,-828,16976,-2420,-2187,68
498000,148,-828,17056,-2550,-2116,17
500000,192,-840,17072,-2642,-2085,-43
502000,184,-800,17244,-2740,-2045,-97
504000,176,-784,17144,-2860,-1945,-169
506000,252,-812,17368,-2941,-1959,-194
508000,336,-816,17076,-3039,-1913,-250
510000,192,-864,17372,-3103,-1782,-316
512000,272,-840,17292,-3170,-1738,-324
514000,268,-932,17360,-3233,-1697,-397
516000,264,-928,17284,-3243,-1552,-438
518000,320,-996,17436,-3243,-1426,-450
520000,284,-1048,17432,-3285,-1391,-526
522000,320,-1032,17268,-3289,-1367,-578
524000,308,-1100,17332,-3311,-1221,-585
526000,312,-1148,17304,-3303,-1117,-669
528000,248,-1272,17404,-3285,-1021,-702
530000,344,-1244,17380,-3232,-938,-764
532000,380,-1216,17280,-3205,-865,-764
534000,276,-1248,17384,-3124,-768,-807
536000,240,-1304,17380,-3079,-654,-859
538000,224,-1364,17320,-3036,-620,-871
540004,180,-1420,17340,-2988,-513,-956
542000,176,-1408,17200,-2888,-442,-991
544000,148,-1408,17376,-2850,-431,-1014
546000,152,-1492,17288,-2746,-403,-1043
548000,136,-1476,17168,-2611,-353,-1076
550000,152,-1424,17064,-2562,-344,-1138
552000,132,-1500,17136,-2464,-320,-1180
554004,56,-1464,17168,-2334,-281,-1206
556000,-32,-1456,16980,-2216,-315,-1254
558000,-68,-1420,17068,-2099,-318,-1281
560000,-144,-1312,16824,-2039,-326,-1307
562000,-180,-1256,16672,-1932,-337,-1268
564000,-168,-1224,16532,-1883,-353,-1325
566000,-192,-1296,16468,-1787,-365,-1298
568000,-172,-1364,16460,-1705,-373,-1313
570000,-256,-1332,16328,-1590,-395,-1335
572000,-252,-1312,16360,-1514,-431,-1331
574000,-372,-1240,16340,-1422,-497,-1344
576000,-464,-1188,16244,-1351,-533,-1329
578000,-504,-1108,16176,-1254,-626,-1306
580000,-476,-1096,16132,-1210,-636,-1304
582000,-544,-1084,16140,-1169,-679,-1286
584000,-648,-1040,16160,-1099,-764,-1212
586000,-596,-988,16156,-1033,-805,-1169
588000,-612,-984,16160,-1036,-916,-1153
590000,-608,-1004,16112,-936,-1002,-1106
592000,-604,-896,16208,-866,-1035,-1116
594000,-620,-872,16036,-824,-1147,-1074
596000,-636,-772,16028,-803,-1238,-977
598000,-640,-732,16128,-742,-1272,-975
600000,-644,-868,16104,-713,-1362,-901
602000,-632,-848,16040,-670,-1478,-852
604000,-700,-888,15960,-666,-1497,-841
606004,-684,-836,16028,-649,-1587,-803
608000,-632,-884,15908,-628,-1613,-783
610000,-588,-848,15888,-653,-1632,-747
612000,-576,-844,15800,-629,-1620,-677
614000,-612,-804,15752,-656,-1641,-602
616004,-596,-768,15752,-674,-1619,-604
618000,-624,-736,15708,-705,-1575,-549
620000,-568,-768,15708,-732,-1537,-482
622000,-560,-736,15656,-727,-1480,-459
624000,-632,-768,15912,-766,-1439,-397
626000,-696,-344,15224,-921,-1405,-315
628000,-348,-380,14820,-1120,-1338,-310
630000,-400,-676,15292,-1131,-1182,-302
632000,-496,-704,15612,-1180,-1067,-237
634000,-436,-724,15660,-1228,-996,-206
636000,-184,-1092,15912,-1279,-905,-227
638000,-60,-1056,16412,-1247,-830,-232
640000,-228,-768,15796,-1311,-756,-242
642000,-272,-640,15872,-1372,-708,-198
644000,-276,-664,15684,-1451,-601,-190
646000,-220,-660,15524,-1534,-489,-152
648000,-228,-636,15812,-1571,-368,-132
650000,-208,-816,16084,-1570,-251,-87
652000,-236,-916,16364,-1612,-172,-69
654000,-60,-908,16240,-1652,-172,-79
656000,-136,-856,16204,-1714,-64,-30
658000,-160,-784,16044,-1783,-14,-22
660000,-144,-668,16024,-1887,115,-4
662000,-136,-656,15964,-1948,146,56
664000,-164,-572,16060,-2087,203,30
666000,-136,-648,16100,-2125,228,112
668000,-112,-652,16228,-2168,319,110
670004,-60,-588,16300,-2193,327,139
672000,52,-740,16336,-2287,333,153
674000,128,-844,16572,-2292,368,113
676000,8,-900,16676,-2300,394,154
678004,-28,-816,16712,-2293,358,171
680000,-92,-836,16800,-2262,366,202
682004,-112,-832,16920,-2249,280,222
684000,-12,-876,16920,-2185,275,235
686000,80,-972,16892,-2163,188,259
688000,84,-1104,16996,-2116,173,242
690000,160,-1092,17064,-2113,71,232
692000,144,-1112,17036,-2034,14,225
694000,120,-1120,17068,-1972,-86,214
696000,168,-1096,17124,-1915,-161,218
698000,84,-1204,17220,-1846,-264,237
700000,128,-1212,17220,-1744,-420,229
702000,156,-1300,17260,-1693,-519,228
704000,128,-1388,17240,-1632,-583,260
706000,100,-1404,17312,-1552,-670,204
708000,72,-1364,17288,-1489,-774,226
710000,88,-1404,17288,-1412,-819,206
712000,-4,-1268,17308,-1335,-917,212
714000,28,-1252,17384,-1277,-899,214
716000,-12,-1156,17156,-1211,-1001,215
718000,-64,-1092,17224,-1132,-1006,244
720000,-76,-1112,17196,-1097,-1024,247
722000,-148,-952,17192,-1061,-1017,242
724000,-124,-956,17308,-1005,-1066,278
726000,-116,-848,17228,-955,-1096,304
728000,-120,-792,17132,-886,-1025,254
730000,-208,-788,17100,-851,-987,336
732000,-180,-760,17080,-868,-989,324
734004,-208,-644,17096,-812,-922,351
736000,-152,-664,16904,-815,-870,391
738000,-140,-592,16908,-813,-796,399
740000,-120,-580,16968,-802,-691,427
742000,-148,-508,16944,-836,-585,469
744004,-84,-480,16952,-821,-494,455
746000,-32,-360,16792,-829,-394,514
748000,-28,-472,16912,-852,-279,566
750000,28,-352,16856,-864,-165,583
752000,144,-324,16824,-877,-24,623
754000,212,-368,16848,-887,56,672
756000,220,-380,16936,-910,168,689
758000,312,-428,16960,-958,243,710
760000,348,-396,17008,-980,289,715
762000,416,-392,16992,-976,359,742
764000,508,-452,17000,-1022,367,781
766000,584,-480,17060,-1035,403,779
768000,632,-356,17016,-1071,423,808
770000,696,-452,17072,-1159,394,828
772000,768,-404,17160,-1142,318,851
774000,836,-428,17136,-1199,308,863
776000,992,-440,17200,-1229,238,863
778000,988,-424,17216,-1275,221,883
780000,1044,-468,17104,-1278,158,885
782000,972,-464,17284,-1241,30,858
784000,1052,-488,17356,-1328,-6,885
786000,1052,-480,17396,-1358,-48,835
788000,1100,-500,17440,-1383,-198,808
790000,1116,-448,17476,-1388,-279,802
792000,1224,-436,17468,-1417,-386,818
794000,1184,-356,17536,-1396,-482,778
796000,1236,-436,17584,-1432,-554,758
798004,1252,-368,17632,-1400,-643,763
800000,1228,-388,17752,-1410,-761,706
802000,1248,-528,17684,-1408,-833,691
804000,1300,-504,17780,-1414,-908,641
806000,1264,-552,17788,-1324,-928,610
808000,1260,-560,17844,-1377,-1000,614
810004,1240,-624,17880,-1365,-1033,572
812000,1228,-596,17888,-1345,-1108,551
814000,1260,-596,18040,-1320,-1163,538
816000,1172,-624,18044,-1284,-1242,506
818000,1268,-656,18028,-1260,-1280,504
820000,1300,-624,18108,-1243,-1314,511
822000,1356,-712,18140,-1198,-1360,467
824000,1416,-748,18092,-1186,-1417,496
826000,1436,-764,18184,-1149,-1434,458
828000,1456,-828,18120,-1104,-1484,452
830000,1568,-772,18200,-1107,-1542,489
832000,1512,-728,18304,-1054,-1550,460
834000,1580,-764,18372,-1037,-1641,379
836000,1724,-752,18320,-1020,-1682,417
838000,1812,-764,18148,-974,-1694,406
840000,1832,-760,18196,-937,-1693,338
842000,2048,-720,18240,-929,-1704,296
844000,2096,-688,18260,-858,-1692,229
846000,2196,-680,18300,-810,-1732,165
848000,2216,-716,18256,-776,-1733,127
850000,2292,-740,18296,-748,-1720,-12
852000,2352,-780,18200,-708,-1772,-105
854000,2392,-756,18168,-712,-1715,-191
856000,2428,-632,17988,-667,-1653,-314
858004,2528,-684,18088,-598,-1634,-427
860000,2588,-712,18132,-537,-1583,-597
862004,2556,-592,17952,-505,-1550,-739
864000,2616,-716,17980,-522,-1457,-870
866000,2592,-704,18004,-454,-1414,-1004
868000,2552,-680,17964,-395,-1352,-1148
870000,2628,-668,18032,-389,-1246,-1285
872004,2608,-668,17824,-341,-1149,-1442
874000,2552,-616,17796,-317,-1040,-1587
876000,2608,-576,17840,-291,-945,-1733
878000,2588,-672,17720,-183,-869,-1908
880000,2512,-668,17768,-169,-708,-2072
882000,2492,-676,17584,-105,-633,-2200
884000,2528,-712,17600,-70,-526,-2409
886000,2520,-664,17632,-68,-369,-2544
888000,2436,-740,17520,3,-231,-2720
890000,2416,-728,17476,29,-128,-2903
892000,2372,-756,17416,78,65,-3029
894000,2300,-756,17432,82,158,-3204
896000,2248,-688,17420,107,278,-3375
898000,2260,-664,17328,120,381,-3513
900000,2188,-664,17264,149,513,-3676
902000,2124,-600,17208,155,631,-3809
904000,2060,-532,17128,186,780,-3953
906000,1948,-516,17180,245,911,-4100
908000,1904,-404,17072,219,1009,-4246
910000,1840,-396,17156,210,1086,-4364
912000,1764,-376,17184,228,1208,-4473
914000,1700,-380,17068,264,1311,-4641
916000,1688,-364,17040,253,1356,-4729
918000,1548,-292,17028,302,1440,-4822
920000,1552,-380,17044,302,1563,-4919
922000,1540,-324,17136,243,1609,-5007
924000,1412,-260,17084,244,1760,-5085
926004,1320,-244,17084,236,1837,-5178
928000,1260,-272,17040,248,1929,-5259
930000,1096,-280,17208,282,1992,-5265
932000,1144,-196,17260,234,2093,-5341
934000,1064,-228,17248,241,2147,-5393
936000,996,-220,17212,264,2206,-5466
938004,960,-260,17312,289,2303,-5501
940000,856,-248,17276,369,2334,-5534
942000,864,-304,17304,379,2386,-5559
944000,764,-312,17372,426,2419,-5553
946000,708,-336,17348,456,2411,-5599
948000,672,-340,17436,529,2401,-5588
950000,756,-336,17448,588,2352,-5599
952000,668,-388,17420,620,2289,-5587
954000,712,-396,17516,687,2275,-5598
956000,616,-376,17416,747,2231,-5600
958000,624,-420,17360,821,2156,-5599
960000,540,-400,17388,881,2086,-5576
962000,564,-396,17376,908,2026,-5603
964000,536,-340,17412,999,1944,-5613
966000,576,-264,17408,1035,1823,-5603
968000,516,-272,17460,1061,1792,-5580
970000,440,-196,17272,1166,1673,-5591
972000,504,-136,17244,1169,1605,-5585
974000,452,-168,17204,1268,1481,-5607
976000,472,-84,17172,1301,1429,-5626
978000,460,-40,17092,1351,1280,-5607
980000,432,-40,17204,1359,1175,-5633
982000,388,-60,17256,1429,1078,-5668
984000,396,-84,17184,1392,1015,-5639
986004,408,-52,17056,1439,873,-5706
988000,372,52,17100,1441,770,-5703
990004,388,52,17032,1387,692,-5743
992004,392,112,16996,1430,617,-5727
994000,404,148,16952,1409,551,-5718
996000,368,188,16928,1349,516,-5746
998004,228,156,17108,1342,449,-5782
1000000,336,140,17024,1317,410,-5782
1002000,344,108,16816,1248,404,-5832
1004000,280,116,16832,1231,355,-5854
1006000,272,204,16872,1157,385,-5841
1008000,264,264,16760,1078,311,-5892
1010000,248,300,16840,1062,304,-5922
1012000,164,360,16916,981,326,-5883
1014000,196,348,16908,915,311,-5882
1016000,140,404,16868,865,331,-5889
1018000,132,460,16976,764,281,-5874
1020000,56,400,17016,677,269,-5839
1022000,28,420,17032,668,299,-5857
1024000,-12,460,17104,564,228,-5818
1026000,-28,464,17040,494,175,-5731
1028000,-40,400,17096,413,159,-5697
1030000,-88,360,17132,367,133,-5668
1032000,-152,328,17132,305,109,-5585
1034000,-136,328,17152,234,66,-5530
1036000,-168,292,17220,216,22,-5487
1038000,-100,300,17192,177,-39,-5433
1040000,-192,244,17340,107,-73,-5362
1042000,-140,236,17208,92,-167,-5248
1044000,-96,232,17232,9,-197,-5225
1046000,-88,152,17260,-10,-275,-5122
1048000,-156,152,17284,-44,-353,-5073
1050000,-84,68,17268,-54,-434,-4975
1052000,-76,104,17280,-23,-525,-4926
1054000,-64,28,17480,-67,-585,-4852
1056000,-12,8,17308,-55,-646,-4779
1058000,52,-12,17252,-62,-744,-4755
1060000,136,-112,17244,-84,-800,-4675
1062000,160,-100,17188,-88,-893,-4653
1064000,148,-136,17084,-69,-993,-4651
1066004,216,-208,17080,-64,-1035,-4604
1068000,296,-140,17196,-43,-1086,-4592
1070000,248,-100,17008,-64,-1148,-4594
1072000,384,-144,17068,-52,-1217,-4557
1074000,380,-60,16976,-55,-1285,-4577
1076000,416,-28,17008,-32,-1389,-4538
1078000,512,-124,16916,-25,-1436,-4555
1080000,488,-72,16844,-5,-1516,-4590
1082000,528,-88,16992,12,-1606,-4614
1084000,572,-152,16808,4,-1667,-4647
1086000,684,-112,16824,6,-1736,-4653
1088000,728,-104,16840,27,-1794,-4712
1090000,648,-132,16784,17,-1866,-4716
1092000,736,-152,16644,13,-1937,-4768
1094000,680,-168,16680,68,-1948,-4827
1096000,676,-204,16680,-11,-2009,-4881
1098000,684,-232,16660,-10,-2073,-4938
1100000,716,-136,16560,-10,-2067,-4979
1102000,784,-108,16564,-56,-2100,-5020
1104000,772,-112,16668,-84,-2105,-5060
1106000,776,-132,16656,-119,-2094,-5123
1108000,752,-60,16604,-130,-2055,-5180
1110000,688,-56,16508,-176,-2066,-5261
1112000,732,-88,16576,-207,-2031,-5319
1114004,704,-84,16616,-258,-2046,-5380
1116000,668,-112,16616,-264,-1966,-5438
1118004,632,-60,16488,-357,-1884,-5496
1120000,716,-4,16572,-446,-1832,-5574
1122000,632,-52,16628,-427,-1758,-5631
1124000,536,8,16696,-470,-1738,-5682
1126000,512,88,16636,-542,-1673,-5762
1128004,524,100,16656,-590,-1607,-5803
1130000,500,136,16700,-650,-1568,-5877
1132000,436,156,16676,-647,-1509,-5891
1134000,468,68,16744,-680,-1430,-5956
1136000,452,92,16744,-737,-1411,-6000
1138000,448,52,16724,-729,-1324,-6048
1140000,344,108,16748,-774,-1306,-6111
1142000,464,88,16764,-787,-1240,-6147
1144000,420,108,16700,-831,-1183,-6198
1146004,444,108,16760,-806,-1154,-6260
1148000,412,60,16752,-837,-1148,-6313
1150000,392,212,16760,-798,-1122,-6381
1152000,404,108,16688,-789,-1089,-6417
1154000,364,200,16840,-761,-1069,-6486
1156000,388,164,16800,-735,-1082,-6543
1158000,464,168,16816,-701,-1063,-6587
1160000,388,180,16832,-692,-1045,-6645
1162000,416,160,16752,-630,-1057,-6727
1164000,412,176,16840,-587,-1046,-6764
1166000,440,168,16792,-578,-1051,-6805
1168000,436,144,16760,-525,-1035,-6887
1170000,420,132,16864,-469,-1071,-6971
1172000,432,200,16756,-430,-1060,-7015
1174000,468,132,16668,-353,-1023,-7073
1176000,428,156,16692,-302,-1013,-7138
1178000,388,236,16676,-225,-1017,-7200
1180004,384,232,16632,-209,-1008,-7282
1182000,420,232,16632,-117,-979,-7335
1184000,408,232,16628,-33,-944,-7385
1186000,448,232,16576,45,-969,-7483
1188004,372,200,16456,110,-908,-7526
1190000,412,220,16508,226,-925,-7613
1192000,392,228,16520,288,-872,-7654
1194004,320,176,16384,375,-822,-7743
1196000,376,168,16396,460,-776,-7807
1198000,272,272,16320,559,-781,-7856
1200000,172,256,16296,570,-767,-7929
1202000,140,204,16324,706,-737,-7970
1204000,196,264,16236,776,-706,-8033
1206000,108,300,16300,892,-694,-8049
1208004,44,368,16076,934,-719,-8088
1210000,-36,412,16044,1021,-676,-8133
1212000,-88,312,15944,1075,-713,-8154
1214000,-104,340,15848,1136,-724,-8185
1216004,-168,400,15788,1140,-692,-8182
1218000,-180,444,15848,1228,-733,-8200
1220000,-260,452,15776,1237,-731,-8197
1222000,-272,448,15740,1274,-747,-8193
1224004,-284,488,15748,1282,-815,-8171
1226000,-308,512,15680,1273,-878,-8172
1228000,-332,492,15788,1310,-880,-8154
1230000,-200,540,15780,1250,-949,-8184
1232000,-176,592,15732,1266,-969,-8143
1234000,-196,572,15636,1223,-992,-8128
1236000,-140,592,15748,1242,-1038,-8126
1238000,-100,604,15720,1179,-1134,-8115
1240000,-72,700,15724,1118,-1182,-8132
1242000,36,620,15748,1084,-1228,-8090
1244000,20,668,15616,1005,-1308,-8126
1246004,100,676,15644,948,-1344,-8131
1248000,176,704,15700,941,-1385,-8162
1250000,208,688,15776,863,-1466,-8140
1252000,140,624,15620,829,-1524,-8191
1254004,196,728,15652,778,-1569,-8224
1256000,276,648,15748,741,-1602,-8224
1258000,240,692,15728,689,-1675,-8296
1260000,244,672,15644,630,-1679,-8343
1262000,236,708,15660,598,-1718,-8374
1264000,288,656,15700,555,-1732,-8389
1266000,220,644,15636,545,-1706,-8438
1268000,192,704,15676,507,-1755,-8497
1270000,148,632,15612,484,-1711,-8540
1272000,212,632,15532,464,-1677,-8593
1274000,156,496,15604,432,-1670,-8615
1276000,220,604,15648,428,-1629,-8651
1278000,152,512,15592,408,-1601,-8759
1280000,84,516,15592,392,-1561,-8766
1282000,72,564,15436,386,-1555,-8831
1284000,100,540,15548,357,-1447,-8898
1286000,28,532,15376,303,-1437,-8939
1288000,64,524,15492,300,-1390,-8978
1290000,68,640,15460,264,-1361,-9066
1292000,-980,840,16448,295,-1325,-9097
1294000,-492,1496,13496,42,-1253,-9013
1296000,-416,1128,14748,-178,-1176,-9040
1298000,-224,592,14316,-279,-1152,-9085
1300000,-384,368,15888,-283,-1067,-9156
1302000,-60,160,15380,-268,-1068,-9259
1304000,52,168,15896,-336,-1092,-9361
1306000,-44,508,15664,-337,-1099,-9490
1308000,-212,852,15500,-405,-1065,-9522
1310004,-368,1152,15396,-469,-1013,-9584
1312000,-496,1380,15284,-585,-1026,-9592
1314000,-676,1448,15364,-725,-945,-9557
1316000,-576,1444,15312,-817,-873,-9553
1318004,-656,1396,15360,-942,-817,-9556
1320000,-684,1280,15580,-980,-754,-9544
1322004,-704,1160,15720,-1091,-706,-9567
1324000,-688,1068,15800,-1122,-687,-9602
1326004,-720,1044,15736,-1206,-601,-9603
1328000,-828,952,15704,-1246,-589,-9627
1330000,-804,1020,15764,-1308,-597,-9623
1332000,-912,1020,15848,-1342,-551,-9670
1334000,-984,1176,15772,-1434,-547,-9682
1336004,-988,1216,15872,-1433,-491,-9670
1338000,-1040,1184,15996,-1475,-444,-9649
1340000,-1096,1280,16176,-1496,-451,-9657
1342000,-1096,1220,16144,-1499,-449,-9663
1344004,-1132,1212,16300,-1503,-436,-9656
1346000,-1116,1276,16372,-1504,-428,-9618
1348000,-1124,1220,16256,-1471,-449,-9602
1350000,-1164,1264,16284,-1451,-357,-9591
1352004,-1148,1228,16268,-1449,-328,-9530
1354000,-1172,1268,16404,-1383,-313,-9502
1356000,-1292,1256,16460,-1388,-301,-9530
1358000,-1256,1240,16496,-1317,-249,-9445
1360000,-1304,1276,16464,-1341,-247,-9389
1362000,-1256,1176,16608,-1279,-279,-9371
1364000,-1196,1268,16672,-1180,-282,-9319
1366000,-1296,1272,16564,-1133,-256,-9285
1368000,-1248,1228,16528,-1036,-257,-9273
1370000,-1292,1264,16620,-996,-264,-9209
1372000,-1292,1352,16600,-925,-221,-9189
1374004,-1400,1328,16556,-873,-275,-9189
1376000,-1400,1328,16636,-816,-251,-9154
1378000,-1392,1340,16604,-681,-290,-9087
1380000,-1396,1312,16608,-584,-324,-9067
1382000,-1404,1312,16708,-533,-302,-9051
1384004,-1408,1328,16628,-510,-331,-9006
1386000,-1568,1484,16656,-372,-345,-8966
1388000,-1608,1348,16676,-302,-383,-8941
1390000,-1656,1476,16732,-207,-420,-8911
1392000,-1640,1528,16576,-175,-499,-8891
1394000,-1632,1504,16520,-93,-554,-8853
1396000,-1720,1576,16444,-53,-608,-8804
1398000,-1744,1548,16480,0,-654,-8769
1400000,-1816,1688,16492,48,-682,-8703
1402000,-1832,1592,16520,54,-773,-8637
1404000,-1820,1728,16524,34,-877,-8627
1406000,-1892,1748,16684,105,-938,-8562
1408000,-1936,1792,16652,116,-1027,-8523
1410000,-1952,1968,16640,105,-1167,-8467
1412000,-2016,2020,16728,148,-1257,-8390
1414000,-1984,2056,16596,109,-1315,-8342
1416000,-1968,2080,16664,143,-1432,-8280
1418000,-1984,2120,16756,106,-1509,-8210
1420000,-1984,2216,16764,105,-1570,-8168
1422000,-2008,2180,16792,69,-1676,-8118
1424000,-2120,2184,16912,44,-1715,-8066
1426000,-2040,2248,16812,84,-1764,-7989
1428000,-2036,2180,16900,85,-1849,-7947
1430000,-2064,2204,16948,107,-1907,-7887
1432000,-2080,2224,16908,111,-1909,-7824
1434000,-2028,2212,16996,90,-1903,-7780
1436000,-2032,2220,16792,70,-1933,-7705
1438000,-1956,2272,16880,109,-1896,-7671
1440000,-2032,2300,16960,128,-1901,-7647
1442000,-1916,2276,17016,147,-1885,-7564
1444000,-1816,2296,16916,170,-1812,-7520
1446000,-1800,2256,16972,188,-1760,-7498
1448000,-1784,2340,17016,195,-1725,-7445
1450004,-1772,2384,17064,261,-1673,-7426
1452000,-1716,2428,16952,261,-1616,-7430
1454004,-1628,2428,17052,260,-1592,-7352
1456000,-1628,2512,16964,242,-1548,-7385
1458000,-1600,2696,17136,327,-1432,-7357
1460000,-1432,2592,17000,330,-1391,-7347
1462000,-1524,2764,17032,329,-1377,-7316
1464000,-1356,2848,17024,371,-1293,-7342
1466000,-1364,2772,17180,361,-1232,-7385
1468000,-1384,2844,17052,361,-1180,-7351
1470000,-1332,2884,17104,347,-1130,-7381
1472000,-1260,2936,17008,327,-1153,-7444
1474000,-1216,2888,16948,346,-1130,-7464
1476000,-1292,3008,17048,343,-1075,-7505
1478000,-1212,3000,16960,323,-1057,-7529
1480000,-1224,3036,16808,301,-1054,-7575
1482000,-1268,2996,16820,267,-1017,-7634
1484000,-1276,2948,16912,256,-1008,-7694
1486000,-1256,3028,16840,208,-995,-7723
1488000,-1332,2960,16852,139,-950,-7782
1490000,-1336,2908,16996,78,-900,-7793
1492000,-1372,2896,16844,41,-871,-7813
1494000,-1436,2828,17008,0,-818,-7895
1496000,-1444,2832,16808,-57,-805,-7897
1498004,-1412,2856,16924,-111,-721,-7930
1500000,-1484,2756,16904,-116,-696,-7986
1502004,-1480,2752,16732,-140,-666,-7967
1504000,-1424,2672,16792,-210,-581,-8018
1506000,-1436,2572,16840,-187,-531,-8061
1508000,-1452,2488,16796,-196,-555,-8090
1510000,-1428,2488,16844,-225,-499,-8140
1512004,-1472,2472,16796,-201,-471,-8175
1514000,-1488,2344,16812,-237,-479,-8194
1516000,-1492,2304,16772,-264,-454,-8241
1518000,-1536,2284,16764,-219,-406,-8266
1520000,-1496,2264,16680,-263,-371,-8337
1522000,-1572,2196,16780,-242,-263,-8358
1524000,-1588,2152,16788,-231,-256,-8379
1526000,-1688,2172,16824,-172,-297,-8407
1528000,-1700,2152,16800,-191,-285,-8489
1530000,-1700,1996,16780,-164,-344,-8473
1532000,-1704,1988,16644,-194,-374,-8514
1534000,-1776,1836,16704,-117,-475,-8553
1536000,-1764,1788,16572,-137,-484,-8599
1538000,-1724,1764,16660,-160,-548,-8602
1540000,-1888,1624,16724,-162,-616,-8639
1542000,-1932,1736,16704,-158,-749,-8706
1544000,-2016,1704,16700,-213,-862,-8702
1546000,-2000,1668,16728,-205,-976,-8785
1548000,-2120,1712,16564,-310,-1074,-8781
1550000,-2164,1740,16660,-324,-1165,-8771
1552000,-2104,1708,16532,-322,-1301,-8831
1554000,-2224,1720,16444,-416,-1405,-8831
1556000,-2272,1604,16416,-439,-1485,-8848
1558000,-2300,1652,16392,-500,-1620,-8873
1560000,-2260,1576,16356,-586,-1716,-8876
1562000,-2404,1512,16388,-677,-1792,-8910
1564000,-2380,1428,16292,-773,-1858,-8937
1566000,-2496,1460,16220,-819,-1846,-8942
1568000,-2536,1612,16248,-967,-1864,-8973
1570000,-2620,1608,16192,-1077,-1863,-8962
1572000,-2672,1728,16268,-1176,-1819,-9018
1574000,-2732,1864,16264,-1289,-1715,-9043
1576004,-2748,1904,16344,-1387,-1651,-9057
1578004,-2816,2032,16352,-1531,-1505,-9095
1580000,-2872,2108,16440,-1628,-1382,-9123
1582000,-2904,2200,16568,-1713,-1258,-9085
1584000,-2896,2104,16608,-1805,-1073,-9142
1586000,-2876,2092,16428,-1902,-898,-9167
1588000,-2884,2108,16536,-2011,-724,-9162
1590000,-2972,2164,16572,-2078,-526,-9132
1592000,-2980,2168,16704,-2110,-361,-9201
1594000,-2956,2132,16616,-2157,-155,-9217
1596000,-3028,2148,16460,-2162,1,-9218
1598000,-3040,2068,16596,-2179,195,-9255
1600004,-3132,1988,16660,-2154,339,-9260
1602000,-3092,1912,16680,-2137,557,-9298
1604000,-3132,1904,16620,-2099,731,-9344
1606000,-3268,1772,16512,-2032,922,-9322
1608000,-3320,1696,16456,-1974,1028,-9305
1610000,-3472,1684,16588,-1912,1201,-9329
1612004,-3660,1696,16496,-1807,1349,-9346
1614000,-3664,1624,16588,-1734,1458,-9344
1616000,-3804,1608,16416,-1623,1536,-9331
1618000,-3868,1628,16392,-1539,1662,-9334
1620000,-3984,1588,16524,-1437,1753,-9331
1622000,-4156,1556,16484,-1343,1790,-9303
1624000,-4180,1500,16316,-1252,1903,-9248
1626000,-4388,1448,16348,-1173,1937,-9233
1628000,-4472,1348,16256,-1092,1955,-9211
1630004,-4576,1188,16280,-1018,1996,-9134
1632000,-4720,1084,16104,-978,1962,-9096
1634000,-4876,984,16272,-891,1968,-9022
1636000,-4960,892,16228,-873,1872,-8923
1638000,-5156,844,16204,-827,1818,-8853
1640004,-5380,864,16248,-768,1702,-8788
1642000,-5564,1056,16256,-720,1537,-8660
1644000,-5764,1180,16304,-665,1299,-8538
1646000,-6012,1264,14784,-505,1806,-8390
1648000,-5952,1480,17788,-652,841,-8206
1650000,-5928,1404,15960,-666,565,-8025
1652000,-6288,1264,17284,-689,282,-7839
1654000,-6532,1732,16676,-657,-75,-7632
1656000,-6656,1464,16600,-652,-515,-7481
1658000,-6656,1628,16776,-668,-872,-7281
1660000,-6868,1704,16752,-693,-1213,-7029
1662000,-6892,1648,16684,-675,-1575,-6872
1664000,-7072,1536,17024,-699,-1964,-6682
1666000,-7264,1484,17252,-721,-2474,-6434
1668000,-7324,1520,16928,-656,-2814,-6210
1670000,-7476,1448,16972,-694,-3085,-6023
1672000,-7624,1408,17124,-620,-3454,-5853
1674004,-7848,1412,17120,-621,-3773,-5592
1676000,-8044,1468,17088,-589,-3955,-5319
1678000,-8160,1400,17140,-573,-4154,-5072
1680000,-8156,1276,16680,-453,-4091,-4794
1682000,-8508,1328,16980,-485,-4056,-4527
1684000,-8772,1280,17276,-484,-4065,-4197
1686000,-8756,1256,16972,-468,-3822,-3951
1688000,-8920,1140,16884,-449,-3456,-3647
1690000,-9136,1220,17024,-466,-3102,-3392
1692000,-9372,1272,16912,-429,-2718,-3064
1694000,-9540,1348,17020,-388,-2233,-2774
1696000,-9640,1292,17008,-320,-1622,-2497
1698000,-9892,1292,17000,-268,-1028,-2174
1700000,-10156,1304,17104,-222,-359,-1852
1702000,-10412,1316,17196,-141,306,-1517
1704000,-10708,1288,17180,-48,1018,-1172
1706004,-10972,1180,17176,55,1776,-892
1708000,-11208,1256,17276,170,2471,-543
1710004,-11496,1260,17284,319,3259,-158
1712000,-11776,1264,17264,448,3903,213
1714000,-12136,1284,17304,540,4591,624
1716000,-12468,1328,17312,673,5251,1088
1718000,-12732,1304,17292,808,5907,1596
1720000,-13000,1192,17256,941,6493,2132
1722000,-13260,1240,17284,1048,6919,2709
1724000,-12900,936,17108,1195,7425,3253
1726000,-13064,768,17624,1316,7658,3781
1728000,-13100,756,17580,1459,7862,4401
1730000,-13124,888,17508,1574,7999,5015
1732000,-12416,700,17552,1686,8055,5600
1734000,-12508,564,17908,1750,7980,6245
1736000,-12204,488,17932,1831,7965,6864
1738000,-12016,548,17768,1826,7896,7485
1740000,-11832,428,17932,1766,7806,8147
1742000,-11504,264,17820,1784,7607,8765
1744000,-11276,196,18084,1697,7381,9350
1746000,-10668,-84,18156,1712,7011,9940
1748000,-10388,-356,18468,1689,6556,10416
1750000,-9828,-576,18736,1723,6087,10924
1752000,-9452,-540,19048,1774,5596,11421
1754000,-8888,-588,19264,1784,5100,11897
1756000,-8328,-700,19284,1793,4621,12392
1758000,-7992,-732,19444,1842,4151,12805
1760000,-7560,-736,19636,1793,3687,13299
1762000,-7316,-700,19996,1788,3177,13831
1764000,-6976,-708,20088,1814,2662,14300
1766000,-6532,-760,20240,1809,2170,14860
1768004,-6072,-816,20540,1824,1669,15325
1770000,-5520,-796,20836,1910,1125,15845
1772000,-5148,-636,21132,1989,568,16351
1774000,-4608,-576,21244,2109,13,16874
1776000,-4052,-624,21432,2269,-644,17370
1778000,-3460,-628,21688,2457,-1309,17858
1780000,-2772,-916,21840,2727,-2069,18307
1782000,-2096,-1076,21880,3027,-2889,18746
1784000,-1240,-1344,21892,3373,-3684,19049
1786000,-412,-1556,21828,3788,-4473,19324
1788000,340,-1740,21692,4238,-5254,19567
1790000,1124,-2012,21624,4726,-6061,19753
1792000,1892,-2200,21276,5254,-6805,19898
1794000,2596,-2452,20996,5767,-7558,20001
1796000,3420,-2716,20524,6330,-8179,20050
1798000,4192,-2968,20216,6825,-8653,20027
1800000,5032,-3116,19448,7381,-8955,19964
1802000,5996,-3240,18948,7881,-9097,19838
1804000,6860,-3292,18456,8341,-9118,19664
1806000,7880,-3336,17776,8758,-8942,19447
1808000,8852,-3268,17076,9169,-8604,19141
1810000,9824,-3180,16620,9546,-8100,18749
1812000,10720,-3112,16140,9862,-7518,18315
1814000,12076,-3040,15588,10057,-6777,17670
1816000,13200,-3000,15348,10278,-5972,16885
1818000,14316,-2872,15200,10398,-5160,15963
1820000,13524,-2076,15480,10563,-4345,15231
1822004,15244,-1904,13244,10600,-3140,14219
1824000,16036,-1444,14324,10464,-2224,13166
1826000,14808,-1056,14260,10249,-1402,12249
1828000,15948,-1044,13156,10002,-340,11050
1830004,16296,-784,12120,9784,954,9757
1832000,16368,-652,12156,9570,2170,8444
1834004,16384,-448,12300,9177,3198,7117
1836000,16276,-432,12408,8793,4168,5777
1838000,16092,-456,11896,8409,5173,4424
1840000,15764,-368,11760,8011,6265,3055
1842000,15300,-184,11968,7544,7209,1788
1844000,14780,-168,11984,7069,8050,649
1846000,14224,-244,11876,6541,8837,-424
1848000,13640,-128,11956,6070,9586,-1436
1850000,12968,-244,12152,5574,10160,-2389
1852000,12252,-136,12348,5046,10665,-3249
1854000,11652,-152,12472,4587,11066,-4066
1856000,11192,-136,12596,4165,11407,-4819
1858000,10608,-148,12656,3734,11669,-5539
1860000,10108,-272,13104,3427,11871,-6169
1862000,9548,-312,13128,3056,12047,-6832
1864000,9172,-288,13580,2761,12036,-7439
1866000,8688,-268,13904,2421,12088,-7988
1868000,8312,-228,14364,2161,11927,-8505
1870000,7912,-240,14656,1830,11709,-8983
1872000,7572,-128,15148,1618,11400,-9467
1874000,7312,-20,15436,1377,11069,-9937
1876000,7072,68,15612,1234,10726,-10348
1878000,6768,132,15996,1128,10346,-10781
1880000,6576,144,16284,1101,9971,-11196
1882000,6200,84,16452,1039,9592,-11601
1884000,5952,60,16732,1027,9265,-11984
1886004,5664,-64,16752,1062,8861,-12413
1888000,5468,-232,16736,1101,8501,-12759
1890000,5200,-288,16772,1128,8181,-13177
1892000,4876,-476,16744,1216,7909,-13539
1894000,4612,-508,16704,1299,7743,-13860
1896004,4264,-580,16508,1386,7555,-14191
1898000,3948,-612,16532,1488,7358,-14535
1900000,3572,-600,16484,1567,7117,-14816
1902000,3240,-660,16412,1651,6924,-15114
1904000,2936,-632,16372,1751,6736,-15355
1906000,2688,-656,16244,1842,6527,-15652
1908000,2400,-600,15872,1893,6386,-15821
1910000,2044,-576,15524,1948,6260,-16034
1912000,1884,-520,15436,1993,6085,-16277
1914000,1624,-556,15428,1991,5887,-16446
1916000,1484,-628,15444,2020,5711,-16671
1918000,1296,-608,15500,2087,5495,-16850
1920000,996,-572,15428,2058,5194,-17024
1922000,504,-92,15436,2175,4944,-17135
1924000,-824,732,16624,2143,4614,-17077
1926000,-144,40,14640,1882,4183,-17212
1928000,-628,188,14160,1548,3843,-17359
1930000,-1272,608,14600,1411,3597,-17317
1932000,-1444,680,13700,1125,3290,-17344
1934000,-1508,400,14540,896,2913,-17417
1936000,-1612,396,15008,730,2522,-17431
1938000,-2136,564,14776,518,2021,-17464
1940000,-2696,604,15312,367,1434,-17488
1942000,-3216,928,15144,216,832,-17451
1944000,-3744,1152,15320,48,308,-17346
1946000,-4268,1228,15280,-72,-328,-17187
1948000,-4744,1216,15508,-177,-879,-17075
1950004,-5248,1196,15516,-284,-1418,-16819
1952000,-5776,1176,15492,-346,-1925,-16554
1954000,-6388,1312,15472,-461,-2346,-16272
1956000,-6992,1340,15460,-530,-2728,-15972
1958004,-7540,1360,15592,-591,-3197,-15622
1960000,-8164,1368,15732,-622,-3663,-15294
1962004,-8756,1552,15800,-612,-4031,-14941
1964000,-9400,1744,15976,-617,-4350,-14546
1966004,-9848,1780,15904,-621,-4656,-14106
1968000,-10328,1780,15864,-642,-4924,-13684
1970000,-10840,1904,15924,-553,-5143,-13279
1972000,-11324,2036,16048,-501,-5246,-12792
1974000,-11748,2208,15624,-514,-5386,-12302
1976004,-12608,2500,15764,-477,-5416,-11709
1978000,-12872,2052,16204,-398,-5395,-11231
1980000,-12884,1772,16048,-321,-5309,-10749
1982000,-13072,1748,16180,-238,-5240,-10288
1984000,-13512,1796,16296,-182,-5083,-9838
1986000,-14232,2252,15932,-217,-4840,-9235
1988000,-14836,2704,15568,-266,-4537,-8600
1990000,-14928,2868,14932,-398,-4141,-7971
1992000,-14784,2488,15328,-464,-3831,-7458
1994004,-15212,2084,16196,-463,-3643,-6937
1996000,-15292,2336,15880,-593,-3473,-6340
1998000,-15724,2416,15920,-569,-3221,-5790
2000000,-16100,2492,15912,-634,-3093,-5228
2002000,-16428,2600,15788,-717,-2847,-4585
2004000,-16756,2588,15588,-853,-2642,-3958
2006000,-17100,2584,15372,-1020,-2340,-3278
2008000,-17440,2460,15172,-1252,-2011,-2568
2010000,-17688,2260,15224,-1476,-1801,-1861
2012000,-17996,1860,15180,-1741,-1566,-1138
2014004,-18104,1528,15324,-1986,-1353,-443
2016000,-18196,1456,15424,-2272,-1184,327
2018000,-18380,1424,15520,-2505,-1138,1099
2020000,-18364,1456,15756,-2718,-1061,1880
2022000,-18300,1536,15928,-3031,-1032,2675
2024004,-18172,1760,16228,-3292,-1088,3563
2026000,-17968,1708,16516,-3518,-1114,4391
2028000,-17808,1680,16548,-3849,-1055,5221
2030000,-17556,1652,16660,-4037,-1063,6106
2032000,-17144,1688,17004,-4268,-1092,6968
2034000,-16828,1668,17440,-4488,-1189,7836
2036000,-16380,1496,17600,-4723,-1289,8607
2038000,-15960,1368,17876,-4818,-1434,9448
2040000,-15512,1196,18108,-4935,-1631,10219
2042000,-14980,1032,18540,-4963,-1872,10939
2044000,-14560,848,18772,-4992,-2145,11609
2046000,-14016,572,18836,-4930,-2387,12191
2048000,-13488,420,18900,-4906,-2581,12828
2050000,-12948,228,19084,-4775,-2738,13404
2052000,-12400,-80,19196,-4671,-2891,13939
2054000,-11884,-248,19152,-4485,-3003,14456
2056000,-11340,-580,19364,-4260,-3125,14934
2058000,-10900,-732,19316,-4073,-3218,15394
2060000,-10436,-948,19396,-3875,-3305,15878
2062000,-9956,-1036,19392,-3607,-3434,16290
2064000,-9460,-1044,19188,-3381,-3511,16706
2066000,-8968,-1168,18880,-3116,-3628,17140
2068000,-8516,-1220,18732,-2894,-3744,17479
2070000,-7984,-1480,18700,-2703,-3943,17896
2072000,-7472,-1728,18404,-2414,-4138,18265
2074000,-7208,-1452,18432,-2279,-4407,18581
2076000,-6576,-1832,18484,-1989,-4709,18914
2078004,-5984,-2252,18324,-1710,-5036,19226
2080000,-5628,-2080,18652,-1457,-5494,19550
2082000,-5172,-1876,18296,-1138,-5892,19908
2084000,-4760,-1644,18148,-967,-6426,20253
2086004,-3816,-1260,16984,-856,-6828,20550
2088000,-3224,-952,15984,-891,-7392,20861
2090004,-2368,-1972,17292,-756,-7822,21066
2092000,-1824,-2152,17272,-618,-8327,21341
2094004,-1236,-1724,17988,-548,-8937,21627
2096000,-312,-1532,16568,-541,-9574,21782
2098000,552,-1708,17080,-563,-10142,22020
2100000,1476,-1760,16936,-485,-10578,22178
2102000,2388,-1668,17300,-356,-10844,22313
2104004,3476,-1376,17360,-241,-11172,22389
2106000,4488,-928,16892,-213,-11437,22391
2108000,5604,-896,16896,-149,-11579,22336
2110000,6724,-1196,16960,-19,-11648,22122
2112004,7776,-1464,17444,241,-11630,21804
2114000,8920,-1792,17612,545,-11504,21488
2116000,9884,-2056,17828,815,-11319,21050
2118000,10976,-2288,17852,1190,-11022,20473
2120000,12132,-2520,17932,1595,-10615,19777
2122000,13188,-2792,17848,1948,-10222,18954
2124000,11940,-2392,18372,2354,-9753,18337
2126000,13832,-2364,17168,2692,-8903,17559
2128000,14828,-2388,16836,2945,-8038,16655
2130000,14272,-2088,16916,3116,-7161,15913
2132000,15552,-2008,15740,3310,-6161,15019
2134000,15844,-2100,16136,3440,-5128,14031
2136000,16072,-1948,15944,3552,-4060,13067
2138000,16276,-1948,16004,3631,-3037,12067
2140000,16448,-1764,15944,3703,-2000,11023
2142004,16768,-1692,16056,3699,-1040,9988
2144000,16880,-1608,16144,3665,-303,8978
2146000,16976,-1400,15680,3576,650,7933
2148000,17088,-1144,15672,3446,1537,6864
2150000,17048,-848,15860,3212,2232,5900
2152004,16916,-744,15396,2991,2974,4828
2154000,16796,-564,15000,2789,3869,3803
2156000,16648,-520,15132,2600,4686,2768
2158000,16372,-628,15540,2397,5322,1783
2160000,16196,-608,15652,2162,5843,792
2162000,15988,-668,15708,1956,6306,-180
2164000,15720,-628,15820,1699,6686,-1141
2166000,15336,-664,15552,1521,7041,-2052
2168000,15144,-884,15864,1306,7300,-2940
2170000,14872,-908,15748,1217,7546,-3839
2172000,14644,-1260,16004,1136,7693,-4741
2174000,14440,-1452,16128,1137,7793,-5644
2176000,14076,-1776,16416,1204,7775,-6449
2178000,13876,-2016,16280,1310,7751,-7313
2180000,13676,-2284,16640,1468,7631,-8081
2182000,13500,-2580,16740,1657,7479,-8902
2184000,13252,-2780,16800,1848,7259,-9703
2186000,12824,-2956,16764,2112,7044,-10475
2188000,12496,-3072,16940,2362,6823,-11225
2190000,12240,-3232,16924,2660,6511,-11987
2192000,12060,-3256,16800,2915,6240,-12645
2194000,11676,-3248,16784,3201,5939,-13348
2196000,11368,-3216,16708,3452,5655,-14032
2198000,11044,-3120,16744,3696,5317,-14719
2200000,10688,-3128,16636,3947,5003,-15388
2202000,10392,-3008,16224,4137,4759,-16030
2204000,10008,-3000,16372,4301,4512,-16686
2206004,9772,-2956,16104,4436,4271,-17337
2208000,9440,-2936,16028,4577,4058,-17932
2210000,9156,-2920,15820,4656,3904,-18547
2212000,8956,-2936,15668,4729,3687,-19171
2214004,8548,-2916,15468,4718,3546,-19762
2216000,8292,-2988,15324,4747,3472,-20349
2218004,7812,-3020,15176,4651,3332,-20901
2220000,7412,-3064,14996,4550,3330,-21515
2222004,7064,-2988,14948,4475,3315,-22019
2224000,6696,-3052,14980,4339,3334,-22647
2226000,6296,-3060,14952,4251,3378,-23157
2228000,5864,-2928,14948,4095,3424,-23689
2230000,5388,-2764,14800,3947,3449,-24141
2232000,4848,-2632,14660,3832,3520,-24640
2234000,4468,-2484,14672,3675,3687,-25102
2236000,3920,-2488,14716,3551,3826,-25500
2238000,3480,-2420,14620,3464,4029,-25922
2240004,2900,-2524,14724,3400,4174,-26320
2242000,2288,-2628,14568,3246,4382,-26657
2244000,1560,-2760,14368,3191,4553,-27042
2246000,804,-2928,14408,3120,4712,-27363
2248000,72,-3036,14268,3026,4845,-27665
2250000,-840,-2920,14416,2969,4927,-27951
2252000,-1628,-2788,14204,2900,4934,-28171
2254000,-2524,-2488,14332,2792,4838,-28346
2256000,-3324,-2436,14228,2654,4722,-28534
2258000,-4356,-1956,14276,2550,4509,-28567
2260000,-5220,-1632,14256,2406,4221,-28615
2262000,-6084,-1312,14152,2213,3873,-28584
2264000,-7012,-1168,14184,2075,3512,-28522
2266000,-8168,-664,13916,1912,3157,-28396
2268000,-9196,-760,14460,1708,2724,-28223
2270004,-12260,1416,14232,1503,2260,-27725
2272000,-12648,628,14876,1397,1854,-27346
2274000,-12448,-208,13380,1087,1214,-27171
2276000,-12216,-804,14096,893,634,-27076
2278000,-12356,-1092,14844,742,-33,-26946
2280004,-13488,-192,14252,505,-723,-26733
2282000,-14996,1148,14072,213,-1354,-26234
2284000,-16476,2676,13240,-70,-1903,-25535
2286000,-17684,3468,12860,-365,-2244,-24682
2288000,-18816,4104,12816,-613,-2609,-23733
2290000,-19812,4232,12732,-880,-2887,-22736
2292000,-20516,3924,12680,-1184,-3121,-21733
2294000,-21220,3456,12856,-1460,-3290,-20648
2296000,-22376,3368,13296,-1620,-3547,-19463
2298000,-23368,3192,13180,-1925,-3719,-18236
2300000,-23340,2796,12824,-2214,-3609,-17151
2302000,-21808,1760,12324,-2341,-3629,-16301
2304000,-24580,1816,15008,-2495,-3818,-15198
2306000,-23668,1800,13496,-2579,-3822,-14149
2308000,-24356,2204,13840,-2629,-3817,-13103
2310000,-24796,2608,14140,-2693,-3841,-11917
2312000,-25404,2976,14176,-2777,-3822,-10753
2314000,-25836,3344,14080,-2853,-3691,-9472
2316000,-25940,3576,13968,-2963,-3614,-8231
2318004,-26216,3404,14036,-3053,-3491,-7024
2320000,-26200,3088,13976,-3172,-3362,-5791
2322000,-26160,2632,14060,-3249,-3303,-4648
2324000,-26024,2312,14504,-3257,-3245,-3541
2326000,-25904,1988,15292,-3295,-3308,-2407
2328000,-25888,1856,15972,-3346,-3427,-1303
2330000,-25868,1812,16276,-3419,-3537,-105
2332000,-25644,1872,16316,-3487,-3611,1115
2334000,-25484,1984,16276,-3579,-3589,2373
2336000,-25264,2024,16364,-3698,-3585,3643
2338000,-24924,2056,16656,-3850,-3575,4940
2340000,-24564,2100,17068,-3997,-3683,6219
2342000,-24152,1776,17540,-4190,-3833,7544
2344004,-23656,1532,18112,-4372,-4017,8785
2346004,-23052,1524,18264,-4532,-4087,10049
2348000,-22332,1436,18744,-4687,-4202,11281
2350000,-21588,1328,19056,-4807,-4302,12466
2352000,-20884,1268,19484,-4860,-4355,13603
2354000,-19912,1068,19052,-4851,-4361,14696
2356000,-19288,968,21020,-5027,-4668,15701
2358000,-18348,728,20748,-4966,-4791,16614
2360000,-17504,528,21296,-4904,-4970,17461
2362000,-17416,380,22864,-4750,-5181,18285
2364000,-15524,192,20772,-4555,-5344,18952
2366000,-14592,64,21292,-4407,-5518,19692
2368000,-13808,-356,21720,-4173,-5729,20269
2370000,-13340,-640,21984,-3894,-5889,20866
2372000,-12468,-836,22228,-3590,-6127,21442
2374000,-11880,-1044,22256,-3345,-6346,21997
2376000,-11124,-1232,22452,-3033,-6539,22522
2378000,-10248,-1308,21672,-2795,-6543,22985
2380000,-9464,-1320,21316,-2439,-6499,23475
2382000,-8696,-1472,21264,-2095,-6444,23955
2384000,-7960,-1480,20908,-1819,-6417,24407
2386000,-7120,-1576,20436,-1563,-6353,24857
2388000,-6212,-1804,20212,-1316,-6319,25318
2390000,-5404,-2108,20156,-1086,-6291,25779
2392000,-4628,-2148,19972,-824,-6399,26277
2394000,-3712,-2172,20008,-592,-6535,26709
2396000,-2796,-2188,20364,-447,-6894,27185
2398004,-1804,-2112,20088,-338,-7307,27697
2400000,-740,-1960,19916,-141,-7763,28108
2402000,428,-1788,19492,65,-8164,28508
2404000,1664,-1616,19428,266,-8495,28925
2406000,2908,-1476,19028,472,-8829,29204
2408004,4068,-1376,19240,720,-9347,29524
2410000,5140,-1348,19324,949,-9932,29772
2412000,6048,-1656,19136,1281,-10499,29998
2414000,7376,-1944,19184,1604,-11143,30118
2416000,8608,-2056,19532,2075,-11660,30165
2418000,9776,-1788,19628,2372,-12342,30189
2420000,11116,-1592,19208,2619,-13020,30139
2422000,12208,-1448,18604,2790,-13743,30099
2424000,13436,-1636,18668,2869,-14627,29911
2426000,14396,-2024,19152,2999,-15512,29635
2428000,15668,-2296,17400,3323,-15718,29219
2430000,16736,-2144,16976,3715,-15838,28697
2432000,18008,-2156,16640,4066,-15865,28068
2434000,19076,-2236,16388,4430,-15733,27252
2436000,20156,-2212,15976,4824,-15654,26391
2438000,21036,-2316,16092,5100,-15598,25488
2440000,21936,-2560,15584,5408,-15491,24394
2442000,22928,-2536,15320,5621,-15264,23133
2444000,24436,-2688,14828,5913,-15003,21714
2446000,24844,-2840,14704,6208,-14770,20220
2448000,24380,-2808,14516,6478,-14220,19032
2450000,23476,-2200,14516,6704,-13455,17759
2452000,25480,-2016,12580,6698,-12703,16226
2454000,25564,-2032,13356,6649,-11845,14809
2456000,25568,-2016,12360,6582,-10849,13434
2458000,25300,-1848,12192,6486,-9800,12016
2460000,25132,-1836,11412,6382,-8807,10683
2462004,24904,-1944,11244,6282,-7777,9266
2464000,24532,-2068,10840,6227,-6694,7894
2466000,24048,-2192,10476,6154,-5585,6485
2468000,23420,-2568,10464,6163,-4510,5101
2470004,22612,-2840,10296,6070,-3515,3754
2472000,21820,-2960,9912,6029,-2518,2418
2474004,21140,-3124,9484,5981,-1599,1134
2476000,20328,-3512,9552,5980,-684,-124
2478004,19504,-3608,9344,5924,98,-1352
2480000,18620,-3752,9452,5853,717,-2564
2482000,17936,-3888,9428,5851,1332,-3754
2484000,17376,-4140,9652,5801,1905,-4914
2486000,16736,-4184,9676,5717,2415,-6174
2488000,16116,-4200,9764,5599,2900,-7426
2490000,15448,-4136,9732,5455,3338,-8644
2492000,14820,-4096,9656,5290,3700,-9831
2494000,14004,-4116,9576,5110,4049,-11038
2496004,12972,-4052,10152,4872,4227,-12245
2498000,12444,-4080,10484,4682,4315,-13440
2500000,11964,-3720,9836,4428,4279,-14578
2502000,11080,-3572,10316,4179,4363,-15710
2504000,10144,-3412,10432,3918,4395,-16828
2506000,9284,-3116,10292,3604,4427,-17876
2508000,8788,-3360,10848,3299,4424,-18946
2510000,7332,-2916,10936,2927,4235,-19952
2512000,6088,-2844,11232,2523,4161,-20864
2514000,5192,-2748,11520,2078,3992,-21781
2516000,4136,-2888,11804,1701,3856,-22694
2518000,2816,-2800,11996,1317,3703,-23528
2520000,1480,-2680,11808,947,3642,-24241
2522000,120,-2776,12368,561,3587,-24922
2524000,-988,-3020,12268,246,3652,-25667
2526004,-3128,-2388,12536,-101,3670,-26217
2528000,-5308,-1692,12124,-457,3895,-26545
2530000,-7064,-1416,11864,-803,4337,-26906
2532000,-8372,-1168,12124,-1086,4819,-27137
2534000,-10036,-664,12088,-1379,5385,-27232
2536004,-11544,-328,11684,-1637,6270,-27314
2538000,-11592,472,11128,-1809,7367,-27203
2540000,-13444,220,13352,-2196,8068,-27139
2542000,-15744,252,12912,-2475,9200,-27129
2544000,-17156,664,11436,-2543,11234,-26838
2546000,-19612,1060,11076,-2711,13406,-26432
2548000,-20876,1280,12228,-2891,14911,-25859
2550000,-22728,1480,12952,-3195,16231,-25168
2552000,-23500,1768,13500,-3437,17572,-24348
2554000,-25296,1780,13628,-3647,19010,-23611
2556000,-26876,2028,13852,-3931,20509,-22652
2558000,-28032,2388,14756,-4258,21537,-21525
2560000,-29384,2912,15504,-4585,22170,-20349
2562000,-30748,3040,16064,-4935,22537,-18959
2564000,-31704,3076,16852,-5351,22555,-17536
2566000,-32768,3460,17872,-5759,22186,-15976
2568000,-32768,4084,18596,-6186,21343,-14081
2570000,-32768,5132,19624,-6622,20206,-11817
2572000,-32768,4900,20456,-7116,19002,-9494
2574000,-32768,2788,23316,-7255,16764,-7496
2576000,-32768,4664,22008,-7730,14429,-4894
2578000,-32768,4752,25396,-7936,12369,-2271
2580000,-32768,5432,25508,-8057,9835,597
2582000,-32768,5800,26512,-8168,7139,3545
2584000,-32768,5780,26948,-8191,4219,6850
2586000,-32768,5044,27528,-8185,1141,10090
2588000,-32768,4536,28448,-8060,-2159,13357
2590004,-32768,4028,29348,-7727,-5562,16495
2592000,-31684,4016,30092,-7388,-9058,19516
2594000,-28828,4100,29944,-6909,-12453,22289
2596000,-25544,4100,29656,-6351,-15773,24778
2598004,-21944,3980,30356,-5668,-18806,27068
2600000,-18140,3648,30540,-4771,-21725,29098
2602004,-13612,3608,27620,-4128,-24253,30761
2604000,-9096,3124,29264,-3095,-26032,32121
2606000,-4240,2328,26900,-2062,-27433,32767
2608000,660,1556,26580,-941,-28390,32767
2610000,4924,6416,27996,229,-29477,32767
2612000,19664,4576,6892,-627,-29191,32767
2614000,18628,-3008,14892,378,-27818,32767
2616000,20436,-6124,15848,1365,-26097,32021
2618000,25120,-6904,21388,2498,-25162,30684
2620000,32700,-9740,13852,4043,-23907,28917
2622000,32767,-10648,19496,6299,-21419,27116
2624000,32767,-10632,19376,8701,-18941,25278
2626000,32767,-9156,19560,10898,-16343,23317
2628000,32767,-4900,13684,12347,-13090,21211
2630000,32767,-3428,12936,13237,-9245,18902
2632000,32767,-3500,6264,13649,-5857,16290
2634000,32767,-3504,6832,13872,-2212,13406
2636000,32767,-4428,5568,13899,1056,10252
2638000,32767,-3636,5916,13665,3866,6889
2640000,32767,-2028,2200,12910,7037,3247
2642000,32767,708,-9860,10651,9894,-95
2644000,32767,-312,-6848,8890,13444,-3603
2646000,32767,-2456,-8976,7072,16273,-6977
2648000,32767,-2928,-8364,4902,18363,-10415
2650004,32767,-4872,-8152,2988,20480,-13996
2652000,32767,-5820,-3416,1396,21699,-16899
2654004,32767,-5428,-2484,-121,22889,-19400
2656000,32767,-5152,-6704,-1720,23813,-22056
2658000,27868,-4684,-4324,-3428,25130,-24216
2660000,21324,-3876,-2728,-5054,26131,-25902
2662000,15344,-3536,-1664,-6743,25839,-27324
2664004,8288,-2968,-292,-8350,24975,-28326
2666000,2056,-2756,900,-9755,23980,-28747
2668000,-3832,-2404,2800,-10988,23081,-28864
2670000,-9728,-2276,6112,-11931,21824,-28616
2672000,-13776,-2092,8900,-12628,20480,-28149
2674000,-17468,-2680,11304,-12909,19090,-27595
2676000,-20624,-2676,17380,-12835,17289,-26854
2678000,-23776,-2168,19480,-12533,15263,-25873
2680000,-26304,-2220,23276,-11923,13475,-24890
2682000,-29608,-1172,25700,-11190,11089,-23383
2684000,-31616,-528,26512,-10203,9128,-21725
2686000,-32768,-276,28804,-9076,7064,-19843
2688000,-32768,-248,29700,-7826,5148,-17837
2690000,-32768,-400,31212,-6397,3337,-15734
2692000,-32768,-720,31568,-5029,1426,-13588
2694000,-32768,-1108,31948,-3638,-337,-11506
2696000,-32768,-1268,32240,-2245,-2127,-9378
2698000,-32768,-948,31040,-988,-3588,-7286
2700000,-32768,-648,30468,171,-5050,-5127
2702000,-32768,-400,29824,1213,-6373,-2973
2704000,-32768,-1688,27204,2219,-7215,-1141
2706000,-32768,440,26276,2911,-8181,880
2708000,-32768,1112,23968,3498,-8378,2864
2710000,-32768,1584,21636,3747,-8295,4762
2712000,-32768,1572,19440,3754,-8159,6604
2714000,-29272,900,17916,3443,-7811,7950
2716000,-23672,-660,16580,3415,-7761,8720
2718004,-22160,-32,16560,3067,-7422,9602
2720000,-19452,788,18652,3031,-7452,10300
2722000,-16416,508,17520,2931,-7487,10774
2724000,-13356,460,17308,2754,-7361,11306
2726004,-10888,436,16620,2637,-7226,11629
2728000,-8672,292,16540,2503,-7117,11909
2730004,-6284,492,16152,2398,-7004,12073
2732000,-4376,920,15476,2201,-6818,12247
2734000,-2720,1212,14708,1969,-6696,12302
2736000,-1060,1308,14332,1750,-6633,12308
2738000,596,1400,13592,1456,-6377,12196
2740000,1996,1428,13008,1140,-6263,12057
2742000,3372,1456,12552,795,-6040,11819
2744000,4700,1548,12248,431,-5786,11512
2746000,5820,1520,12008,56,-5480,11176
2748000,6684,1544,12060,-264,-5246,10792
2750000,7512,1488,11888,-575,-4984,10386
2752004,8228,1464,12168,-924,-4718,9933
2754000,8640,1436,12400,-1229,-4554,9456
2756000,9008,1596,12716,-1601,-4464,8927
2758000,9168,1608,12824,-1932,-4413,8371
2760000,9196,1644,13120,-2225,-4343,7804
2762000,9060,1600,13396,-2552,-4353,7196
2764000,8804,1396,14112,-2881,-4357,6531
2766000,9000,1116,14568,-3090,-4426,5844
2768000,7080,1476,16164,-3214,-4619,5300
2770000,5896,2156,15700,-3365,-4558,5006
2772000,4344,2504,16268,-3467,-4595,4878
2774000,3800,1896,16412,-3505,-4543,4650
2776000,3420,1196,16944,-3461,-4565,4479
2778000,2424,808,18448,-3341,-4721,4368
2780000,1892,596,19188,-3063,-4840,4254
2782004,1552,672,19808,-2677,-4895,4185
2784000,996,748,20236,-2196,-4850,4184
2786000,652,816,20648,-1737,-4735,4214
2788000,480,968,20956,-1162,-4612,4268
2790000,304,980,20956,-580,-4320,4354
2792004,284,920,20968,-20,-4024,4432
2794000,356,924,20868,509,-3671,4448
2796000,1956,1452,18848,948,-3207,4409
2798000,-4864,3820,21580,1519,-3338,5086
2800000,-2548,1384,19372,1711,-3080,5466
2802000,396,-744,18288,1608,-3082,5159
2804000,2776,-1148,16980,1640,-3076,4723
2806000,3000,-100,18132,1672,-2983,4370
2808000,3852,712,18820,1801,-2998,4038
2810000,4832,900,17420,1837,-3076,3758
2812000,4120,1584,17868,1819,-3023,3589
2814000,2892,2548,16512,1621,-3090,3620
2816000,2460,2088,15048,1289,-2982,3636
2818000,2644,1096,14492,890,-2874,3649
2820000,3248,392,14444,490,-2812,3381
2822000,3772,-188,14996,207,-2819,2996
2824000,4188,-280,15836,61,-2967,2579
2826000,4168,196,16340,-58,-3092,2193
2828000,4124,656,16708,-45,-3110,1944
2830000,3628,1048,17008,-114,-3072,1810
2832000,2932,1280,18364,-101,-3066,1759
2834000,2576,1616,14916,-412,-3065,1733
2836000,2128,1280,15592,-684,-2832,1743
2838000,1900,916,16396,-871,-2692,1761
2840000,1912,668,16416,-1038,-2835,1670
2842000,1580,720,17608,-1053,-2776,1543
2844000,1132,848,18484,-933,-2966,1532
2846004,708,1000,18788,-863,-3224,1573
2848000,364,1100,19092,-806,-3382,1621
2850000,36,1188,19108,-616,-3543,1760
2852000,-140,1148,19380,-522,-3736,1870
2854000,-268,1036,19452,-318,-3914,1984
2856000,-404,996,19400,-181,-4001,2106
2858004,-648,992,19316,-12,-4111,2213
2860000,-864,860,19128,240,-4189,2326
2862000,-1068,1028,18936,400,-4166,2484
2864000,-1272,972,18600,575,-4120,2612
2866000,-1348,952,18236,709,-3951,2782
2868000,-1376,1068,17696,790,-3633,2875
2870000,-1248,1072,17308,873,-3181,3008
2872000,-1284,980,17028,933,-2780,3128
2874000,-1116,936,16572,902,-2328,3177
2876000,-944,760,16480,941,-1848,3183
2878000,-760,632,16344,921,-1417,3157
2880000,-724,600,16536,898,-998,3141
2882000,-360,684,16380,841,-643,3076
2884000,-136,756,16368,715,-283,3029
2886000,216,700,16504,646,79,2973
2888000,584,652,16308,527,398,2856
2890000,976,680,16300,455,725,2697
2892000,1360,692,16184,286,1025,2551
2894000,1704,548,16244,87,1295,2315
2896000,2004,516,16412,-44,1530,2035
2898000,2196,564,16576,-251,1730,1796
2900000,2412,548,16840,-369,1892,1522
2902000,2572,572,17208,-543,2114,1274
2904000,2536,612,17532,-644,2255,1005
2906000,2536,584,17868,-708,2410,730
2908000,2408,548,18220,-738,2490,451
2910004,2272,412,18636,-704,2546,175
2912000,1948,460,18952,-664,2604,-87
2914000,1628,416,19136,-584,2644,-316
2916000,1396,492,19380,-516,2658,-527
2918000,1012,580,19600,-444,2646,-724
2920004,608,684,19900,-293,2618,-864
2922000,156,772,20044,-189,2592,-992
2924000,-268,808,20212,-11,2589,-1069
2926000,-672,888,20152,154,2452,-1114
2928000,-1120,884,20276,328,2418,-1111
2930000,-1520,908,20336,481,2319,-1069
2932000,-1960,932,20344,775,2290,-1048
2934000,-2420,872,20376,929,2227,-913
2936000,-2720,744,20424,1216,2231,-728
2938000,-3208,732,20332,1476,2181,-601
2940000,-3416,644,20204,1700,2169,-362
2942000,-3808,700,20164,1926,2168,-156
2944000,-4020,668,19912,2176,2175,117
2946000,-4300,616,19892,2397,2206,378
2948000,-4508,676,19708,2633,2273,685
2950000,-4672,580,19660,2879,2347,976
2952000,-4896,604,19488,3075,2438,1268
2954000,-5036,564,19340,3271,2432,1591
2956000,-5124,620,19192,3475,2500,1886
2958000,-5348,628,19004,3631,2512,2226
2960000,-5520,620,18808,3831,2564,2587
2962000,-5680,548,18700,3995,2549,2948
2964000,-5684,440,18524,4171,2495,3296
2966000,-5788,368,18724,4226,2411,3669
2968000,-5804,352,18748,4248,2331,4055
2970000,-5764,440,18688,4291,2163,4452
2972000,-5724,420,18764,4257,1960,4862
2974004,-5684,520,18904,4280,1689,5279
2976000,-5480,512,18976,4245,1391,5677
2978000,-5480,620,18828,4233,1025,6108
2980000,-5404,572,19040,4161,626,6503
2982004,-5228,600,18776,4100,148,6881
2984000,-5080,620,18916,4038,-336,7241
2986004,-4748,372,18952,3970,-827,7536
2988000,-4684,164,19400,3945,-1463,7859
2990004,-4760,212,19624,3923,-2227,8219
2992000,-4844,344,19832,3862,-2889,8574
2994000,-4780,380,19792,3832,-3628,8882
2996000,-4704,408,19712,3789,-4319,9221
2998000,-4732,512,19596,3773,-4962,9604
3000004,-4748,548,19664,3764,-5576,9937
3002000,-4720,648,19600,3735,-6127,10283
3004000,-4708,788,19404,3760,-6609,10637
3006000,-4792,968,19264,3721,-7076,11049
3008004,-4760,1048,19088,3699,-7406,11426
3010000,-4628,1372,18892,3700,-7641,11851
3012000,-4544,1488,18920,3725,-7780,12317
3014000,-4316,1632,18832,3717,-7861,12703
3016004,-3984,1724,18632,3752,-7996,13126
3018000,-3676,1768,18560,3737,-8020,13565
3020000,-3228,1808,18436,3724,-7954,13964
3022000,-2796,1928,18544,3738,-7905,14386
3024000,-2340,1916,18592,3730,-7869,14761
3026000,-1732,2020,18548,3683,-7711,15089
3028000,-1108,2156,18444,3676,-7551,15377
3030000,-424,2312,18356,3650,-7314,15727
3032000,176,2464,18116,3600,-7027,15963
3034000,876,2628,18124,3622,-6664,16240
3036000,1568,2748,18044,3627,-6242,16452
3038000,2268,2808,18096,3603,-5900,16640
3040000,2944,2884,18012,3634,-5408,16869
3042000,3684,2876,18004,3712,-4937,17013
3044000,4396,2744,18028,3767,-4521,17186
3046000,5092,2572,18272,3903,-4214,17332
3048004,5916,2368,18360,4080,-4087,17496
3050000,6760,2080,18496,4288,-4019,17636
3052000,7676,1620,18364,4668,-4070,17754
3054000,8600,1076,18232,5104,-4262,17825
3056000,9616,480,17844,5679,-4623,17903
3058000,10692,-180,17524,6342,-5076,17873
3060000,11848,-828,17120,7188,-5604,17884
3062000,13224,-1508,16696,8174,-6509,17862
3064000,14608,-2296,15932,9426,-7622,17833
3066004,16224,-2888,14972,10767,-8908,17661
3068000,18024,-3500,13948,12128,-10154,17450
3070000,18272,-3888,13036,13560,-11436,17373
3072000,20912,-4868,10736,15069,-12735,17067
3074000,23108,-5944,9348,16591,-14029,16629
3076000,25424,-6656,7500,18146,-15271,16194
3078000,26104,-6740,5852,19642,-16003,15692
3080000,29328,-7248,3192,21044,-16798,14868
3082000,31556,-7532,1244,22294,-17484,13728
3084000,32767,-7732,-256,23479,-18012,12376
3086000,32767,-7524,-2260,24399,-18295,10647
3088000,32767,-7308,-4472,25091,-18176,8638
3090000,32767,-6788,-6356,25593,-17714,6259
3092000,32767,-6368,-8300,25778,-16711,3629
3094000,32767,-6240,-9904,25459,-15313,639
3096000,32767,-6340,-10636,24825,-13695,-2629
3098000,32767,-6568,-11488,23711,-11785,-6155
3100000,32767,-6996,-12556,22185,-9617,-9905
3102000,32767,-7532,-13760,20292,-7048,-13865
3104000,32767,-8068,-14012,18109,-4520,-17927
3106000,32767,-8768,-16140,15730,-1379,-22198
3108000,32767,-9496,-16896,13272,1907,-26317
3110000,32767,-10032,-17948,10618,5346,-30314
3112000,32524,-10180,-18092,8052,8679,-32768
3114000,29984,-10568,-17856,5324,12031,-32768
3116004,24744,-11908,-15852,2493,14902,-32768
3118000,20304,-12672,-15376,-183,17902,-32768
3120000,15112,-13328,-14080,-2794,20580,-32768
3122000,10044,-13816,-12512,-5397,22644,-32768
3124000,4900,-14036,-9116,-7891,24052,-32768
3126000,376,-13764,-6944,-10408,25003,-32768
3128000,-4096,-12644,-3712,-12939,25564,-32768
3130000,-8300,-11044,-1408,-15495,25832,-32768
3132000,-13088,-9392,2484,-17860,25412,-32768
3134000,-18104,-6736,5012,-20026,25136,-32768
3136000,-23420,-3576,9072,-21694,25514,-32768
3138000,-28208,240,9960,-23431,26069,-32768
3140000,-32324,5136,11788,-25149,26414,-32768
3142000,-32768,7792,14760,-26786,26508,-32768
3144000,-32768,8496,16408,-28265,27083,-32768
3146000,-32768,8152,18112,-29541,28154,-32768
3148000,-32768,6332,20180,-30337,28876,-32768
3150000,-32768,4356,23776,-31015,28831,-32768
3152000,-32768,2772,26476,-31220,28092,-32768
3154000,-32768,1472,29028,-31095,26898,-32768
3156000,-32768,1168,31088,-30591,25416,-32768
3158000,-32768,2088,32767,-29657,23169,-32768
3160000,-32768,2928,32767,-28430,20012,-28731
3162000,-32768,4588,32767,-26914,16382,-23363
3164000,-32768,1696,32767,-24935,12197,-19081
3166004,-32768,5032,32767,-23128,7234,-14096
3168000,-32768,3412,32767,-21005,3309,-9315
3170000,-32768,1008,32767,-20167,2492,-4883
3172000,-32768,1340,32767,-18167,628,-245
3174004,-32768,3848,32767,-15782,-2173,4511
3176000,-32768,4312,32767,-13222,-5662,9064
3178000,-32768,1720,32767,-10656,-8849,13021
3180000,-32768,-1384,32767,-8389,-11409,16428
3182000,-32768,-3216,32767,-6119,-13741,19346
3184000,-32768,-3284,32767,-4200,-15530,21735
3186000,-32484,-2724,32767,-2380,-18731,23610
3188000,-28196,-1820,32767,-708,-21397,25205
3190000,-22320,-732,32767,625,-22127,26697
3192000,-17512,916,32767,1011,-22543,27865
3194000,-11884,436,25984,1380,-22636,28521
3196000,-8856,428,28840,1475,-22746,28856
3198000,-5456,648,27628,1694,-23285,28950
3200000,-824,216,23788,1756,-22494,28692
3202000,2680,304,21900,1736,-21223,28338
3204000,6096,-84,20784,1752,-19917,27667
3206000,8964,-672,19620,1644,-18459,26677
3208000,10576,-1256,19704,1614,-17155,25512
3210000,12776,-2608,15992,1891,-16775,24255
3212000,32767,24,16852,13,-12458,17604
3214000,32767,-5928,6540,761,-9515,15391
3216000,24188,-3060,14048,1243,-4906,14755
3218000,16704,1280,20124,1839,-4844,14249
3220000,20236,2936,12820,1448,-2355,13012
3222000,20280,600,10032,1472,-176,11676
3224004,23132,-2944,8132,1388,2207,10030
3226000,29028,1544,10684,-127,3362,7516
3228000,25708,-1928,-11100,-398,4883,5124
3230000,20444,-24,14124,-1489,6872,4118
3232000,19412,3400,4444,-2405,6166,2738
3234004,18528,2476,3736,-3145,7813,2095
3236000,16300,4224,5420,-4225,8220,1623
3238000,16044,2556,3632,-4793,8407,1060
3240000,15076,-704,8720,-4812,8587,537
3242000,14220,104,12892,-4638,8128,-3
3244000,12904,1644,13184,-4388,7666,-271
3246000,11992,1888,14204,-4012,7123,-545
3248000,12332,2016,16372,-3621,6489,-944
3250000,7708,3228,18072,-3252,5381,-713
3252000,5624,3352,18148,-3086,5157,-493
3254000,6948,3628,15756,-3020,3811,-468
3256000,6448,3104,16364,-3027,3121,-503
3258000,5624,2600,17676,-2861,2081,-622
3260000,5468,2168,18876,-2660,1120,-758
3262000,5208,2672,19220,-2459,383,-794
3264004,4976,2536,19524,-2271,-209,-892
3266000,4544,2356,19536,-2046,-638,-966
3268000,3960,2356,20332,-1894,-939,-1068
3270000,3052,2736,20632,-1779,-1349,-1099
3272004,1944,2352,20540,-1582,-1676,-1133
3274000,1380,2580,20476,-1505,-2009,-1195
3276000,572,2656,20180,-1429,-2328,-1199
3278000,-284,2804,20728,-1336,-2473,-1221
3280000,-2092,3340,16520,-1419,-2693,-1118
3282000,-2052,2556,22912,-1307,-2412,-819
3284000,-2692,1660,18512,-1431,-3114,-695
3286000,-2504,1088,19332,-1408,-2844,-565
3288000,-3028,1708,20124,-1383,-2806,-466
3290000,-2312,1284,19648,-1259,-2990,-423
3292000,-1900,820,20564,-1011,-2884,-416
3294004,-1844,1592,21224,-753,-2876,-342
3296000,-2208,2084,20680,-535,-2780,-162
3298000,-2848,2056,20264,-317,-2623,128
3300000,-3192,2056,20044,-278,-2529,350
3302000,-3292,1872,19792,-162,-2360,621
3304004,-3176,1588,19812,-34,-2270,832
3306000,-2992,1272,20040,156,-2338,999
3308000,-2636,1300,20276,383,-2439,1153
3310000,-2244,1116,20488,676,-2650,1256
3312000,-1948,956,20744,1077,-2772,1406
3314000,-1888,1056,20940,1453,-2989,1596
3316000,-1712,812,20568,1909,-3177,1788
3318000,-1704,720,20384,2289,-3312,1994
3320000,-1636,768,19808,2646,-3426,2251
3322004,-1428,808,19404,2968,-3499,2420
3324000,-1252,716,18760,3269,-3653,2542
3326000,-904,752,18280,3525,-3795,2678
3328000,-540,636,17976,3747,-3943,2774
3330000,-212,616,17760,3920,-4129,2819
3332000,64,500,17364,4091,-4330,2813
3334000,264,616,16964,4178,-4499,2869
3336000,380,656,16792,4224,-4807,2872
3338000,536,688,16428,4195,-5114,2882
3340000,984,628,16340,4148,-5451,2840
3342000,1172,628,16204,4093,-5807,2765
3344000,1356,540,16136,4011,-6085,2627
3346000,1376,592,15976,3873,-6419,2485
3348000,1308,544,15904,3743,-6686,2306
3350000,1232,660,15788,3645,-6917,2160
3352000,1048,704,15836,3525,-7057,1965
3354000,776,748,15984,3476,-7135,1825
3356004,536,784,15928,3419,-7139,1684
3358000,212,788,15928,3367,-7107,1561
3360000,-32,792,16072,3409,-7029,1428
3362000,-424,708,16284,3468,-6908,1309
3364000,-748,684,16336,3549,-6695,1207
3366000,-912,684,16300,3628,-6454,1149
3368000,-1196,752,16660,3740,-6168,1112
3370004,-1420,832,16708,3899,-5846,1012
3372000,-1568,956,16772,4053,-5513,999
3374000,-1864,1908,17788,4215,-5136,985
3376000,-1040,-856,15192,4266,-4802,682
3378000,-1436,464,20036,4650,-4590,570
3380000,-4896,3088,16948,4753,-4473,1083
3382000,-5392,2988,16464,4463,-4370,1451
3384000,-4340,3024,13172,3910,-4137,1584
3386000,-3572,1644,12928,3645,-3825,1591
3388000,-3428,1296,15276,3376,-3637,1550
3390000,-2272,1316,16196,3170,-3767,1266
3392004,-1044,1168,16600,3088,-3661,970
3394000,-1212,1656,17348,3081,-3597,749
3396000,-1520,2264,18200,3062,-3497,611
3398000,-1544,2644,17880,3026,-3300,567
3400000,-1604,2696,17724,2963,-2989,571
3402000,-1804,2768,17944,2921,-2594,615
3404000,-2100,2708,17960,2880,-2202,728
3406000,-2488,2604,18156,2807,-1892,823
3408000,-2804,2760,18156,2733,-1645,906
3410000,-2692,2516,17340,2770,-1203,969
3412000,-3044,2924,17820,2700,-948,1128
3414000,-3508,3092,17528,2601,-660,1265
3416000,-3560,3264,17120,2517,-437,1403
3418000,-3576,3292,17020,2450,-251,1575
3420000,-3636,3312,17056,2370,-12,1742
3422004,-3632,3252,17356,2283,112,1920
3424000,-3616,3276,17484,2251,213,2064
3426000,-3528,3120,17728,2301,331,2200
3428000,-3172,2992,17852,2327,378,2364
3430000,-3064,2932,17896,2354,454,2487
3432004,-3140,3048,17944,2453,520,2626
3434000,-3112,3104,17908,2542,604,2800
3436000,-2996,3036,17760,2658,744,2985
3438000,-3000,3016,17460,2795,939,3132
3440000,-3044,3132,17244,2833,1130,3329
3442000,-3092,3028,17200,2905,1359,3542
3444000,-2904,3052,16744,2959,1561,3720
3446000,-2832,3104,16316,2952,1936,3841
3448000,-2812,2920,16072,2828,2381,3981
3450000,-2912,2808,15996,2793,2704,4046
3452000,-2828,2824,15644,2764,2988,4153
3454000,-2808,2724,15160,2720,3332,4244
3456000,-2716,2692,15292,2599,3545,4418
3458000,-2644,2572,15428,2528,3666,4514
3460000,-2444,2488,15680,2374,3694,4697
3462000,-2092,2348,16160,2158,3538,4856
3464000,-1672,2400,16968,1872,3176,5100
3466000,-984,2416,17452,1508,2629,5344
3468000,-472,2728,17912,1168,1968,5579
3470000,96,2968,17892,807,1347,5868
3472000,692,3052,18128,526,696,6102
3474000,964,3160,18308,273,-54,6309
3476000,1228,2944,18388,67,-839,6474
3478000,1256,2808,18512,-48,-1790,6611
3480000,1300,2624,18536,-122,-2778,6714
3482000,1352,2376,18664,-155,-3810,6787
3484000,1344,2176,18600,-105,-4785,6820
3486000,1268,1876,18568,-86,-5687,6930
3488000,1168,1532,18392,-3,-6477,7011
3490000,1088,1172,18172,82,-7144,7107
3492000,880,1096,18044,157,-7632,7261
3494000,656,868,17828,254,-8054,7406
3496000,348,640,17992,329,-8346,7548
3498004,188,700,17692,415,-8588,7718
3500000,-192,804,17744,528,-8727,7963
3502004,-224,868,17656,713,-8823,8150
3504000,-304,940,17600,860,-8876,8323
3506000,-336,928,17680,1025,-8843,8566
3508000,-268,964,17568,1227,-8754,8771
3510000,-296,856,17524,1356,-8643,9017
3512000,-144,736,17384,1508,-8355,9140
3514000,8,612,17256,1673,-8128,9348
3516000,84,548,17056,1771,-7749,9522
3518000,320,588,16868,1868,-7370,9655
3520000,440,696,16796,1955,-6909,9791
3522000,468,740,16584,2024,-6362,9910
3524000,532,1016,16552,2016,-5830,10097
3526000,712,1276,16404,2049,-5162,10212
3528000,908,1616,16416,2022,-4476,10332
3530000,996,1836,16444,1993,-3749,10491
3532000,1256,2096,16452,1948,-2896,10805
3534000,1568,2300,16108,1815,-1948,10993
3536000,1800,2464,16060,1666,-891,11204
3538000,1904,2548,16344,1488,90,11471
3540000,2044,2868,16532,1358,992,11717
3542000,2216,3264,16880,1132,1784,12040
3544000,2692,3632,16920,1060,2547,12402
3546000,3128,4068,17308,920,3319,12842
3548000,3732,4572,17764,709,3940,13343
3550004,4448,5016,18176,605,4510,13924
3552000,5272,5252,18692,556,4950,14490
3554000,6120,5332,19144,572,5159,15110
3556000,7128,5300,19332,727,5153,15771
3558004,8212,4888,19292,1077,4998,16399
3560000,9376,4152,19268,1645,4696,16956
3562000,10528,3076,19036,2369,4022,17577
3564000,11856,1672,18992,3374,3032,18134
3566000,13432,28,18624,4611,1659,18605
3568000,15204,-1728,18160,6037,-99,19112
3570000,17400,-3492,17492,7659,-2276,19550
3572000,19792,-5324,16496,9457,-4855,19874
3574000,22352,-7208,14904,11434,-7714,20218
3576000,25200,-9188,13368,13686,-10818,20386
3578000,28044,-11080,11132,16054,-14182,20322
3580000,30788,-12820,9196,18454,-17704,19993
3582000,32767,-14228,7020,20801,-21368,19298
3584000,32767,-15420,5068,23031,-25061,18155
3586000,32767,-16376,3056,25010,-28790,16530
3588000,32767,-16768,1232,26672,-32332,14328
3590000,32767,-16668,-128,27794,-32768,11731
3592000,32767,-16616,-3420,28415,-32768,8691
3594000,32767,-15916,-5200,28505,-32768,5327
3596000,32767,-14900,-6592,27835,-32768,1577
3598000,32767,-13420,-8304,26452,-32768,-2493
3600000,32767,-11660,-9568,24520,-32768,-6689
3602000,32767,-11056,-10560,22400,-32768,-11004
3604000,32767,-10408,-11864,19989,-32018,-15244
3606000,32767,-9600,-12856,17285,-28345,-19402
3608000,32767,-8176,-13636,14321,-23972,-23429
3610000,31736,-6480,-13912,11079,-18770,-27416
3612000,28636,-4836,-13908,7820,-13276,-31236
3614000,25956,-3444,-14648,4463,-7163,-32768
3616000,22280,-2284,-14848,1359,-411,-32768
3618000,18132,-1432,-13776,-1552,6262,-32768
3620000,13884,-696,-12996,-4287,12878,-32768
3622000,9740,-260,-11904,-6994,19505,-32768
3624000,5240,160,-9164,-9497,25734,-32768
3626004,1596,476,-7480,-11884,31530,-32768
3628000,-3560,-240,-4812,-14206,32767,-32768
3630004,-7808,-1028,-3292,-16101,32767,-32768
3632000,-13260,-1644,-1084,-17663,32767,-32768
3634000,-16664,-3120,896,-18933,32767,-32768
3636000,-23240,-3080,4264,-19853,32767,-32768
3638000,-28152,-3804,9016,-20356,32767,-32768
3640000,-31664,-4352,10356,-20891,32767,-32768
3642000,-32768,-3596,12256,-21362,32767,-32768
3644000,-32768,-3320,15512,-21756,32767,-32768
3646000,-32768,-3180,17788,-22071,32767,-32768
3648000,-32768,-1776,21448,-22290,32767,-32768
3650000,-32768,-624,24424,-22538,32767,-32768
3652000,-32768,1428,25556,-22624,32767,-32768
3654000,-32768,2280,29616,-22899,32767,-32768
3656000,-32768,3660,30716,-23045,32535,-32768
3658000,-32768,5260,32767,-23167,27223,-32109
3660000,-32768,7192,32767,-23138,21241,-26496
3662000,-32768,6324,32767,-22929,14563,-20518
3664000,-32768,4640,32767,-22371,9129,-15399
3666000,-32768,7224,32767,-21875,2754,-9529
3668000,-32768,7072,32767,-21037,-2004,-3746
3670000,-32768,7588,32767,-19917,-8016,2066
3672000,-32768,6684,32767,-18491,-13575,7677
3674000,-32768,5904,32767,-16812,-18130,13136
3676000,-32768,5476,32767,-14866,-22005,18313
3678004,-32768,3744,32767,-12810,-25399,22901
3680000,-32768,2244,32767,-10608,-28694,26925
3682000,-32768,512,32767,-8290,-31154,30360
3684000,-32768,-696,32767,-5967,-32540,32767
3686000,-28008,-2228,32767,-3598,-32768,32767
3688004,-19620,-2556,27212,-2196,-32768,32767
3690000,-13284,-3472,28612,-346,-32768,32767
3692000,-5356,-4776,23876,1187,-32136,32767
3694000,-364,-4560,24156,2237,-30346,32767
3696000,9252,-5280,14232,3350,-28287,32767
3698000,12480,-5344,16552,4023,-25476,32767
3700000,17568,-4780,13016,4428,-22963,32395
3702000,21188,-4380,11804,4766,-19734,30067
3704000,24060,-4016,10040,4480,-16358,27406
3706004,26752,-2448,9272,4185,-12938,24605
3708000,28932,-996,9176,3612,-8680,21540
3710000,30424,340,8604,2828,-5296,18391
3712000,31112,1540,7072,1738,-1983,15096
3714000,29460,2728,11148,565,908,11799
3716000,32767,1832,-15780,-2330,4151,5984
3718000,32472,1416,14628,-3242,8088,2359
3720000,31412,2964,11464,-4346,11714,-389
3722000,31904,4920,3804,-5574,12901,-2943
3724000,26152,2988,7000,-6715,15696,-5067
3726000,25348,2316,7652,-7974,17497,-7197
3728000,26364,2696,-1828,-9739,18823,-9467
3730000,15660,3116,12216,-10421,19965,-10688
3732000,12008,4680,10328,-11436,19149,-11560
3734000,9060,3320,12064,-11942,18283,-12099
3736000,5672,1996,15400,-12186,17581,-12112
3738000,3220,844,17448,-11997,15681,-11946
3740004,368,-4,21864,-11361,14056,-11374
3742000,-1360,96,24704,-10292,11849,-10660
3744000,-4828,996,27636,-8991,9634,-9716
3746000,-6576,1756,27304,-7821,7740,-8207
3748000,-9056,2388,27668,-6468,5816,-6660
3750000,-9788,2064,27736,-5239,3162,-5148
3752000,-9420,1848,27512,-3876,1793,-3860
3754004,-9500,2252,29056,-2441,112,-2616
3756000,-9192,3140,28676,-1113,-1343,-1518
3758000,-8456,3824,27644,135,-2452,-455
3760000,-7592,4296,26648,1205,-3431,471
3762000,-6752,3968,25880,2193,-4502,1365
3764000,-5984,3680,25136,2992,-5260,2124
3766000,-4724,3532,24092,3753,-6193,2754
3768000,-3724,3216,22980,4351,-6866,3231
3770000,-2740,3088,22260,4883,-7476,3678
3772000,-1992,3416,21216,5266,-8151,4040
3774000,-1256,3596,19316,5458,-8483,4324
3776004,-740,3680,17620,5452,-8634,4534
3778000,480,3700,16116,5280,-8472,4512
3780000,1476,3492,14960,4979,-8294,4372
3782000,2368,3312,13992,4621,-8018,4088
3784004,3400,3476,12680,4086,-7399,3710
3786000,4388,3556,11808,3502,-6614,3249
3788000,4924,3404,11852,2982,-5843,2785
3790000,5540,3376,11428,2284,-5111,2232
3792000,6128,2100,10292,1890,-4095,1732
3794000,3256,4348,13820,1096,-3338,1514
3796000,3888,3980,10184,313,-2618,1247
3798000,3216,3216,10740,-410,-1927,991
3800000,2684,3236,12104,-1027,-1558,745
3802000,2768,2828,12060,-1536,-1199,470
3804000,2296,2420,14640,-1846,-988,209
3806004,2412,2376,16248,-1905,-825,77
3808000,2184,2492,17112,-2002,-637,-37
3810000,1776,2544,17688,-2009,-538,-26
3812000,1060,2816,18076,-1982,-483,117
3814000,504,2784,17944,-1936,-464,246
3816004,-80,2580,17828,-1881,-506,506
3818000,-584,2156,17888,-1814,-615,745
3820000,-824,1844,18356,-1685,-835,964
3822000,-1036,1572,18544,-1500,-1062,1191
3824000,-1168,1412,19044,-1215,-1338,1480
3826000,-1124,1500,19200,-929,-1630,1772
3828000,-1160,1504,19280,-643,-1797,2006
3830000,-1240,1512,19256,-372,-2040,2363
3832000,-1328,1560,19040,-132,-2291,2676
3834004,-1152,1560,18508,81,-2419,2945
3836000,-1120,1456,18352,285,-2569,3192
3838000,-1040,1240,17924,442,-2621,3380
3840000,-780,1124,17444,576,-2623,3520
3842000,-676,1020,17152,702,-2565,3676
3844000,-576,1020,16840,741,-2441,3780
3846000,-504,1092,16700,808,-2218,3881
3848000,-180,1020,15988,829,-1977,3957
3850000,-532,1132,16820,852,-1741,4020
3852000,-1072,1600,16368,690,-1600,4254
3854000,-1696,2532,14500,284,-1412,4511
3856000,-1544,2400,14076,-201,-1213,4675
3858000,-788,1688,14632,-626,-1261,4745
3860000,60,1428,15960,-925,-1396,4727
3862000,748,1648,16824,-1083,-1557,4650
3864000,1160,1808,18100,-1094,-1695,4607
3866000,1224,2060,18956,-1223,-1950,4580
3868000,1356,2464,18904,-1323,-2186,4613
3870004,1388,2624,18784,-1422,-2277,4579
3872000,1344,2684,18724,-1537,-2320,4530
3874000,1412,2648,18892,-1623,-2374,4530
3876000,1460,2364,19228,-1609,-2432,4484
3878004,1548,2032,19680,-1565,-2537,4423
3880000,1572,1588,20100,-1422,-2754,4375
3882004,1528,1332,20308,-1192,-2998,4338
3884000,1544,1084,20292,-942,-3307,4340
3886004,1708,992,20368,-782,-3611,4318
3888000,1768,1080,20496,-547,-3904,4305
3890000,2100,1128,20572,-368,-4308,4366
3892000,2424,1116,20816,-124,-4749,4348
3894000,2604,1400,20776,116,-5208,4248
3896004,2832,1332,20692,363,-5651,4196
3898000,3124,1328,20512,653,-6132,4131
3900000,3192,1300,20400,920,-6621,4018
3902000,3144,1180,20128,1128,-7227,3922
3904004,3036,1288,20672,1213,-7955,3774
3906000,3228,1152,20312,1417,-8465,3661
3908000,3532,1196,18168,1790,-8572,3596
3910000,3352,1212,19200,1926,-8896,3506
3912004,3296,1404,18628,2064,-9267,3381
3914000,3400,1488,18432,2184,-9469,3284
3916000,3460,1556,18084,2275,-9636,3120
3918000,3408,1636,17924,2299,-9795,2956
3920000,3508,1612,17620,2271,-9843,2772
3922000,3620,1572,17056,2206,-9734,2620
3924000,3840,1476,16580,2157,-9432,2388
3926000,3748,1520,16356,2095,-9157,2170
3928000,3780,1592,16264,1984,-8917,1922
3930000,3808,1648,16056,1891,-8593,1699
3932000,3852,1588,15688,1764,-8154,1525
3934004,3804,1448,15400,1584,-7550,1322
3936000,3736,1304,15136,1436,-6921,1200
3938000,3448,1240,15076,1263,-6293,1023
3940000,3140,1312,15060,1101,-5676,879
3942000,2944,1440,15084,972,-4969,749
3944004,2680,1692,15004,853,-4301,610
3946000,2492,1800,15036,701,-3569,520
3948000,2280,1940,15016,544,-2925,404
3950000,2144,2148,15164,421,-2192,274
3952000,1928,2192,14960,289,-1499,186
3954000,1744,2276,15112,158,-809,119
3956000,1396,2368,15120,38,-155,48
3958000,1164,2364,15084,-121,495,5
3960000,756,2372,15132,-294,1218,-13
3962004,488,2460,15028,-479,1890,18
3964000,28,2564,14844,-679,2465,98
3966000,-416,2576,15040,-877,3070,156
3968000,-744,2544,14952,-1110,3656,268
3970000,-1076,2576,15180,-1302,4160,407
3972000,-1292,2520,15224,-1498,4636,585
3974000,-1560,2628,15488,-1760,5065,777
3976000,-1664,2460,15936,-2015,5235,1023
3978000,-1808,2508,16504,-2382,5253,1265
3980000,-1784,2540,17196,-2814,5111,1613
3982000,-1488,2648,17844,-3265,4873,1971
3984000,-1184,2996,18620,-3729,4418,2354
3986000,-804,3204,19464,-4229,3855,2757
3988000,-464,3520,20284,-4745,3105,3073
3990000,-24,3884,20936,-5261,2207,3438
3992000,440,4144,21504,-5724,1268,3732
3994000,800,4284,22252,-6088,158,3973
3996004,1096,4388,22848,-6494,-979,4224
3998000,1324,4384,23428,-6780,-2200,4440
4000000,1580,4272,24000,-7023,-3431,4613
4002000,1804,4072,24648,-7226,-4705,4793
4004000,1948,3900,25012,-7479,-5964,4956
4006000,2044,3632,25504,-7577,-7160,5049
4008000,2248,3304,25812,-7688,-8279,5246
4010004,2508,3108,26260,-7870,-9304,5378
4012000,2644,2888,26816,-7869,-10201,5517
4014000,2880,2708,26836,-7824,-11052,5634
4016000,3100,2504,27112,-7790,-11772,5660
4018000,3328,2240,27224,-7662,-12385,5699
4020000,3396,1876,27440,-7534,-12892,5715
4022000,3596,1532,27368,-7321,-13245,5625
4024000,3836,1160,27552,-7149,-13558,5567
4026000,4020,860,27660,-6914,-13781,5393
4028000,4168,476,27704,-6629,-13866,5198
4030000,4512,260,27760,-6341,-13819,4944
4032004,4616,-16,27788,-5983,-13659,4658
4034000,4652,-256,27616,-5656,-13365,4297
4036000,4760,-452,27248,-5261,-12728,3950
4038000,4832,-740,27160,-4851,-11990,3612
4040004,4544,-760,27144,-4294,-11147,3122
4042000,4320,-672,27124,-3659,-10320,2630
4044000,4008,-388,27112,-2805,-9451,2068
4046000,3764,-32,27068,-1786,-8539,1437
4048000,3384,400,26780,-549,-7659,771
4050000,2940,712,26400,959,-6572,71
4052000,2516,848,25832,2640,-5390,-609
4054000,1896,720,25232,4522,-4113,-1282
4056000,1216,300,24584,6657,-2878,-1838
4058000,324,-456,23732,8976,-1608,-2428
4060000,-516,-1396,22740,11421,-579,-2940
4062004,-1396,-2548,21496,14154,454,-3361
4064000,-2092,-3808,19596,17096,1353,-3759
4066000,-2508,-5120,17052,20277,2354,-4066
4068000,-2884,-6780,14052,23580,3507,-4260
4070000,-2916,-8844,10824,26832,4802,-4343
4072004,-2716,-11292,7536,30009,6162,-4382
4074000,-2372,-13596,3988,32767,7503,-4356
4076000,-1792,-15784,-28,32767,8822,-4385
4078000,-1056,-17720,-3796,32767,9954,-4457
4080000,-168,-19332,-7400,32767,10705,-4574
4082000,920,-20776,-11060,32767,10863,-4858
4084000,1828,-21956,-14116,32767,10457,-5248
4086000,2500,-22740,-17088,32767,9394,-5779
4088000,3060,-22932,-19444,32767,7738,-6504
4090004,3192,-22416,-21612,32767,5824,-7323
4092000,2360,-20344,-20512,32767,2999,-8139
4094000,2440,-18696,-28156,32767,1413,-8795
4096000,-552,-15084,-25852,32767,-841,-9205
4098000,-2540,-11344,-24440,32767,-3609,-9197
4100000,-4260,-7380,-25008,32767,-6229,-8690
4102000,-4416,-2668,-27036,32767,-7916,-7890
4104000,-6576,-652,-27512,32767,-9051,-6870
4106000,-8164,1092,-27072,31035,-10201,-5437
4108000,-8800,3152,-31016,25885,-10294,-3962
4110000,-11144,4340,-29972,20462,-9828,-2330
4112000,-13428,7460,-32068,14527,-9202,-562
4114000,-15476,10696,-32768,8199,-7634,1454
4116000,-16688,14204,-31740,1746,-6877,3914
4118000,-12792,13908,-31484,-4327,-5484,5690
4120000,-14984,13528,-14240,-9866,-4384,7246
4122000,-12084,14828,-27280,-16054,-3119,8609
4124000,-9988,14992,-20180,-21888,-297,9597
4126004,-9856,16536,-17772,-27577,1492,10560
4128000,-7732,16216,-15772,-32768,3114,11377
4130000,-5540,15484,-12040,-32768,5373,11696
4132000,-2840,13160,-7940,-32768,7499,11593
4134004,-32,10236,-1748,-32768,9315,11117
4136000,2560,7572,5848,-32768,10707,10354
4138004,5416,5088,12300,-32768,12058,9290
4140000,7852,2984,19476,-32768,13234,8136
4142004,9772,980,26512,-32768,14148,6816
4144000,11132,-688,32767,-32768,14952,5430
4146000,12340,-2468,32767,-32768,15808,4001
4148000,12868,-3800,32767,-32768,16674,2509
4150000,13328,-4216,32767,-32768,17498,978
4152004,12900,-5328,32767,-32768,18038,-461
4154004,11772,-5336,32767,-32768,18416,-1810
4156000,10652,-5132,32767,-32768,18532,-2913
4158000,9348,-4544,32767,-28350,18559,-3837
4160004,7888,-4248,32767,-23698,18372,-4505
4162000,6140,-3460,32767,-19016,17773,-5004
4164000,4484,-2524,32767,-14609,16730,-5261
4166000,2968,-1576,32767,-10515,15393,-5389
4168004,3516,-880,32767,-6761,14058,-5470
4170000,-3732,1320,32767,-3526,11960,-4851
4172000,-376,2056,32767,-947,10686,-4264
4174000,-3972,2768,32767,1380,8392,-3547
4176000,-4320,2432,32767,3047,6418,-2862
4178000,-4492,2004,32767,4000,4388,-2124
4180000,-4380,5924,24872,2519,2236,-1501
4182000,-1632,3104,19284,3011,1380,-923
4184000,-3768,6444,20316,1919,128,-128
4186000,-2676,6852,19832,1076,-1591,583
4188000,-2188,3636,14520,-295,-2296,1083
4190004,-688,3352,14628,-1802,-3146,1453
4192000,1028,4856,11396,-3509,-3068,1659
4194000,2032,4872,12356,-4881,-3178,1797
4196000,2448,4224,13824,-6205,-3404,1757
4198000,3724,4332,13608,-7614,-2982,1640
4200004,4152,3860,15020,-8794,-2648,1416
4202000,4760,3100,16596,-9708,-2038,1130
4204000,5420,3172,18816,-10425,-1096,720
4206000,5952,2892,20164,-10947,-56,206
4208000,6468,2224,21840,-11176,1155,-323
4210000,6312,2304,24400,-11220,2293,-969
4212000,6552,2100,25800,-10997,3424,-1667
4214000,6676,1436,27436,-10518,4581,-2371
4216000,6120,1292,29608,-9723,5670,-3048
4218000,5304,1256,31172,-8822,6528,-3606
4220000,4408,848,31976,-7648,7204,-4109
4222000,3200,504,32767,-6318,7497,-4498
4224000,2320,248,32767,-4860,7737,-4782
4226000,1272,52,32767,-3275,7845,-4924
4228000,276,20,32767,-1701,7820,-4932
4230000,-4384,3364,32767,-850,7021,-4722
4232000,2988,-1752,20484,322,7093,-4877
4234000,-1584,512,32767,1850,7017,-4601
4236000,-2884,1156,29416,3181,5730,-4250
4238000,-2868,-32,29308,4550,5597,-3886
4240000,-3884,1208,30316,5763,4650,-3424
4242000,-3080,1728,25408,6688,3805,-2950
4244000,-2948,1268,24940,7480,3219,-2572
4246000,-2220,1392,23644,8158,2379,-2267
4248000,-1424,1688,21832,8608,1875,-1982
4250000,-1380,1808,21132,8981,1240,-1650
4252000,-1372,2240,19988,9186,552,-1274
4254004,-1272,2320,18664,9239,-32,-914
4256000,-736,2296,16856,9110,-599,-644
4258000,-396,2320,15688,8834,-957,-402
4260000,-200,2400,14428,8452,-1272,-247
4262004,-180,2480,13380,8010,-1562,-101
4264000,-88,2312,12828,7525,-1727,16
4266004,2424,3460,6860,6435,-1816,-9
4268000,-3508,3844,15440,6323,-1773,425
4270004,-4968,1408,13004,5568,-1604,1113
4272000,-288,1552,8408,4528,-2169,886
4274000,816,1624,7636,3869,-1674,719
4276000,-8,2120,10436,3235,-1667,744
4278000,1080,2016,11080,2784,-1645,648
4280000,1416,1668,12824,2544,-1223,460
4282000,1468,980,13996,2440,-1182,329
4284000,836,1244,14608,2318,-959,220
4286000,64,1976,13880,2190,-686,262
4288004,-600,1932,13408,1972,-453,320
4290000,-1264,1912,13672,1810,-257,405
4292000,-1568,1764,13908,1651,-143,450
4294000,-1796,1296,14452,1563,-143,416
4296000,-1952,1056,15260,1610,-299,473
4298000,-1916,988,15620,1751,-301,530
4300000,-1912,1008,16060,1919,-302,552
4302000,-2136,988,16564,2098,-337,637
4304000,-1992,1024,16104,2219,-489,738
4306000,-2792,996,16820,2488,-665,899
4308000,-3120,832,17288,2620,-796,987
4310000,-2748,840,16044,2719,-940,1113
4312000,-2596,832,16080,2820,-1009,1172
4314000,-2592,836,15576,2842,-1220,1227
4316000,-2376,732,15944,2865,-1355,1303
4318004,-2152,924,15640,2808,-1502,1327
4320000,-1884,1048,15688,2669,-1506,1419
4322000,-1756,1240,15772,2571,-1496,1431
4324000,-1580,1584,15884,2328,-1545,1480
4326000,-1308,1732,15900,2086,-1583,1462
4328004,-904,1888,15916,1811,-1541,1439
4330000,-468,1976,16304,1538,-1584,1390
4332000,8,2044,16424,1223,-1590,1275
4334000,384,1936,16452,972,-1601,1161
4336000,592,1792,16760,713,-1543,1037
4338000,652,1808,16868,410,-1494,854
4340000,740,1696,17080,185,-1284,752
4342000,784,1624,17248,-66,-1079,641
4344000,1404,1352,17424,-327,-790,449
4346000,1728,1316,17868,-473,-565,222
4348000,1364,1504,18200,-572,-175,100
4350000,1460,1632,18396,-700,351,-43
4352000,1924,1552,18588,-710,822,-200
4354000,1900,1412,18688,-776,1282,-354
4356000,1896,1360,19048,-830,1716,-555
4358000,1976,1340,19168,-813,2035,-736
4360000,2020,1292,19496,-781,2412,-904
4362000,2032,1312,19752,-764,2705,-1036
4364000,1964,1376,20112,-732,2921,-1167
4366000,2100,1460,20308,-627,3115,-1296
4368000,2008,1556,20480,-478,3254,-1365
4370000,2032,1692,20488,-444,3232,-1444
4372000,2068,1656,20952,-269,3197,-1545
4374000,1964,1712,21140,-172,3048,-1534
4376000,1960,1776,21400,-58,2833,-1575
4378000,1972,1828,21564,144,2581,-1613
4380000,2016,1964,21668,285,2284,-1634
4382004,1864,2056,22112,421,1892,-1670
4384000,1784,2096,22460,616,1471,-1682
4386000,1756,2280,22548,773,981,-1634
4388000,1596,2348,22812,937,524,-1628
4390004,1436,2452,23020,1105,-24,-1657
4392000,1308,2328,23220,1338,-584,-1670
4394004,1248,2308,23488,1516,-1162,-1622
4396000,1040,2160,23828,1701,-1809,-1634
4398004,888,2140,24020,1908,-2385,-1608
4400000,656,1968,24212,2094,-3013,-1596
4402000,644,1876,24540,2363,-3598,-1540
4404000,-28,1872,24960,2514,-4215,-1482
4406000,260,1608,24744,2717,-4634,-1391
4408000,96,1660,25192,2874,-5090,-1320
4410000,40,1328,25596,3028,-5489,-1284
4412000,-4,1196,26036,3257,-5750,-1177
4414000,-160,1236,26636,3472,-5993,-1152
4416004,-32,1256,27364,3700,-6199,-1084
4418000,-24,1352,28080,4015,-6358,-982
4420000,16,1436,29068,4327,-6620,-978
4422000,208,1596,30232,4740,-6846,-992
4424004,320,1684,31296,5140,-7147,-994
4426000,292,1956,32372,5600,-7460,-978
4428000,764,2016,32767,6043,-7606,-1109
4430000,1032,2164,32767,6671,-7782,-1252
4432000,1152,2312,32767,7384,-7797,-1379
4434000,1260,2352,32767,8294,-7684,-1587
4436000,1236,2244,32767,9441,-7445,-1808
4438000,1064,1968,32767,10867,-7202,-2067
4440000,924,1240,32767,12550,-6923,-2267
4442000,756,84,32767,14520,-6567,-2517
4444000,552,-1544,32767,16753,-6143,-2688
4446004,352,-3412,32468,19199,-5756,-2885
4448000,76,-5152,30544,21768,-5308,-2976
4450000,-312,-6920,28260,24324,-4847,-3120
4452000,-624,-8268,25680,26897,-4436,-3118
4454000,-728,-9464,22476,29495,-3984,-3125
4456004,-784,-10380,19444,31986,-3511,-2995
4458000,-592,-10932,15784,32767,-3198,-2825
4460000,-428,-11504,12124,32767,-2993,-2649
4462000,68,-12336,8576,32767,-2909,-2458
4464000,436,-13232,5124,32767,-3035,-2348
4466000,1024,-14236,1220,32767,-3231,-2243
4468000,1456,-15476,-2480,32767,-3463,-2237
4470000,1296,-16584,-5876,32767,-3750,-2289
4472000,1812,-17164,-9584,32767,-4259,-2371
4474004,2128,-16856,-14016,32767,-4182,-2438
4476000,1772,-15696,-16164,32767,-4309,-2535
4478000,1952,-14132,-19984,32767,-4270,-2589
4480000,1968,-12896,-23192,32767,-3827,-2641
4482000,1892,-11792,-25788,32767,-3227,-2634
4484000,1608,-10740,-28228,32767,-2738,-2732
4486000,2048,-10440,-31940,32767,-1846,-2796
4488000,2080,-9920,-32768,32767,-252,-2921
4490000,2584,-9168,-32768,32767,1904,-3072
4492000,2636,-8064,-32768,30046,4394,-3236
4494000,2736,-6436,-32768,25980,6193,-3513
4496000,3352,-4860,-32768,21657,8338,-3864
4498000,3264,-2344,-32768,16781,10652,-4390
4500000,3344,-472,-32768,11412,12825,-5030
4502000,3792,3200,-32768,5368,15192,-5491
4504000,3936,6252,-32768,-827,16781,-5812
4506000,5544,7056,-32768,-6117,18718,-6392
4508004,5704,12040,-32768,-12882,19225,-7036
4510000,8148,13400,-32768,-19276,19615,-7675
4512000,7856,14224,-32768,-25768,20270,-8514
4514000,6728,15256,-32420,-32342,19633,-9006
4516000,5776,14680,-28136,-32768,19424,-9465
4518000,4084,12220,-23424,-32768,19130,-9815
4520000,2324,9420,-16744,-32768,18470,-10089
4522004,440,6748,-9600,-32768,17823,-10254
4524000,-312,5316,-5916,-32768,17078,-10323
4526000,-2404,1416,5504,-32768,15940,-10342
4528000,-3052,316,9344,-32768,14748,-10345
4530000,-4372,-1688,17056,-32768,13057,-10355
4532000,-5152,-3324,23884,-32768,11209,-10210
4534000,-5528,-4476,29288,-32768,9605,-9965
4536004,-5312,-5616,32767,-32768,8294,-9599
4538000,-5392,-6112,32767,-32768,7608,-9089
4540000,-5952,-6224,32767,-32768,6092,-8520
4542000,-5688,-6456,32767,-32768,5078,-7819
4544004,-5888,-6028,32767,-32768,4222,-7091
4546000,-6308,-5684,32767,-32768,3047,-6217
4548000,-6772,-4636,32767,-32768,2228,-5303
4550000,-7560,-3492,32767,-30169,1472,-4288
4552004,-8332,-2440,32767,-25995,824,-3288
4554000,-9200,-1588,32767,-21891,283,-2216
4556000,-9260,-1004,32767,-18015,-256,-1252
4558000,-9500,100,32767,-14388,-603,-360
4560000,-9880,1332,32767,-11189,-803,503
4562000,-9212,1888,32767,-8349,-785,1197
4564000,-8672,2640,32767,-6077,-682,1738
4566000,-7820,2764,32767,-4275,-334,2067
4568000,-7016,3240,32767,-2990,115,2293
4570000,-5832,3400,32767,-2137,825,2394
4572000,-4332,3924,32767,-1760,1641,2376
4574004,-3004,3844,28260,-2909,2254,2129
4576000,-308,5120,8764,-4243,3191,1669
4578000,-272,7504,27760,-5791,4722,1326
4580000,-956,5812,19156,-6643,4163,1123
4582000,-356,5224,22228,-8189,4619,660
4584004,-212,5404,19020,-9654,4802,311
4586000,500,4204,20396,-11017,5186,-113
4588000,160,4564,22896,-11752,4984,-413
4590000,-2516,5692,27148,-12537,4982,-516
4592000,-2444,5128,22816,-13632,4486,-575
4594000,-964,3804,20976,-13732,4659,-692
4596000,-4628,3780,29812,-13709,4271,-713
4598000,-3368,2092,30512,-12904,3867,-777
4600000,-3692,804,32767,-11557,3633,-740
4602000,-4016,1168,32767,-9921,3452,-527
4604000,-4876,1208,32767,-8020,3287,-140
4606004,-5556,868,32767,-5864,2960,293
4608000,-5892,564,32767,-3544,2617,753
4610000,-5900,632,32767,-1224,2040,1244
4612000,-5720,520,32767,995,1500,1673
4614000,-5736,868,32767,3028,713,2129
4616000,-5476,1128,31984,4795,-267,2589
4618000,-4544,964,28652,6277,-927,2913
4620000,-3732,664,26272,7487,-1603,3182
4622000,-2752,580,23868,8320,-2213,3390
4624000,-1636,780,21332,8962,-2739,3498
4626000,-636,1152,19048,9252,-3210,3492
4628000,328,1572,17248,9413,-3623,3451
4630000,520,3740,18276,8786,-4367,3430
4632000,3100,2456,-940,7459,-3814,2646
4634000,3804,2492,15724,6992,-3770,2301
4636004,4636,928,9696,6589,-4527,2118
4638000,3172,2176,11452,5839,-4870,1869
4640000,3224,2876,10720,5222,-4966,1701
4642000,2996,2484,8684,4365,-5036,1495
4644000,3696,2360,9752,3559,-4835,1105
4646000,3988,5008,14148,2127,-4788,565
4648000,-1180,4332,7220,2125,-4696,1001
4650004,-960,2228,15892,1511,-4418,1274
4652000,1024,2928,11940,567,-5308,988
4654000,1864,2084,10468,57,-4380,793
4656000,264,3844,12756,-680,-4355,824
4658000,908,4144,11948,-1248,-4180,707
4660000,1640,2424,14008,-1491,-3726,538
4662000,1476,2004,17584,-1600,-3600,360
4664000,1344,2520,18280,-1595,-3410,228
4666000,608,2796,17688,-1546,-3104,219
4668000,-112,2856,18160,-1549,-2783,310
4670000,-768,3256,18156,-1551,-2345,416
4672000,-1356,2956,18420,-1444,-1966,444
4674000,-2164,2404,19840,-1207,-1925,572
4676000,-2580,2380,20724,-903,-1858,639
4678000,-2732,2228,20880,-486,-1624,769
4680000,-2948,2104,21804,-29,-1361,932
4682000,-2932,2148,22468,526,-1226,1074
4684000,-2972,2328,22796,1022,-1179,1184
4686000,-3100,2344,22708,1577,-1208,1285
4688000,-3208,2616,22140,1984,-1081,1456
4690000,-3116,2916,21544,2398,-883,1563
4692000,-3684,3032,20768,2727,-784,1759
4694000,-3520,2788,20364,2991,-818,1865
4696000,-3564,2648,19416,3246,-901,1956
4698004,-3560,2468,18916,3496,-813,2111
4700000,-3492,2408,18384,3704,-763,2268
4702004,-3688,2284,18344,3836,-723,2432
4704000,-3452,2216,17912,3958,-798,2565
4706000,-3324,2248,17624,4060,-906,2771
4708000,-3040,2244,17128,4106,-1012,2863
4710000,-2612,2292,16708,4084,-1181,3005
4712004,-2400,2200,16464,4064,-1330,3094
4714000,-2320,2204,16304,4031,-1585,3205
4716000,-2168,2256,16036,3953,-1920,3250
4718000,-2092,2468,15784,3812,-2281,3352
4720000,-2196,2284,15252,3807,-2520,3468
4722000,-3416,2528,15624,3654,-2868,3745
4724000,-3176,2664,14676,3438,-3242,3931
4726000,-3148,2524,13836,3176,-3639,4148
4728000,-3588,2676,14060,2918,-3980,4430
4730000,-1520,2148,13612,2785,-4329,4519
4732000,-3516,2368,15636,2819,-4958,4701
4734000,-3564,2436,16476,2795,-5352,5037
4736000,-3492,2472,16252,2884,-5837,5346
4738000,-3748,2528,15740,2936,-6306,5685
4740000,-4008,2204,15428,3010,-6627,6040
4742000,-4372,2040,15748,3017,-6948,6378
4744000,-4436,1796,15224,3126,-7154,6718
4746000,-4544,1540,15828,3296,-7289,7081
4748000,-4792,1312,16064,3488,-7334,7445
4750000,-4976,1092,16264,3633,-7311,7780
4752000,-4876,920,15888,3799,-7181,8109
4754000,-4788,708,15736,3885,-7006,8391
4756000,-4756,676,15952,3997,-6757,8714
4758000,-4532,736,15988,4062,-6571,8976
4760000,-4288,892,15916,4051,-6255,9155
4762000,-4096,1044,15936,4060,-5916,9362
4764000,-3936,1192,16048,3983,-5512,9490
4766004,-3852,1448,16112,3820,-5109,9616
4768000,-3884,1616,16240,3643,-4745,9687
4770000,-3936,1752,16176,3419,-4324,9722
4772000,-4164,1944,16384,3174,-3930,9776
4774000,-4376,1948,16488,2871,-3451,9813
4776000,-4804,1992,16492,2587,-3054,9874
4778004,-5300,2216,16900,2251,-2741,9949
4780000,-6024,2348,17232,1945,-2436,10023
4782000,-6844,2504,17612,1627,-2215,10198
4784000,-7708,2720,17756,1318,-1952,10413
4786000,-8576,2792,18060,1067,-1764,10713
4788000,-9456,2936,18348,843,-1508,11086
4790000,-10456,2924,18908,562,-1247,11491
4792000,-11560,2880,19312,356,-1047,12046
4794000,-12368,2716,19436,134,-968,12669
4796000,-13252,2896,19796,-87,-998,13351
4798000,-14172,2960,20460,-187,-1071,14104
4800000,-15044,3056,20964,-273,-1418,14973
4802000,-15664,2912,21300,-293,-1869,15846
4804000,-16108,2868,21560,-273,-2429,16783
4806000,-16752,2760,21984,-231,-3052,17823
4808000,-17180,2612,22408,-83,-3745,18889
4810000,-17400,2448,22608,75,-4563,20000
4812000,-17728,2444,22904,307,-5416,21190
4814000,-17936,2264,23244,657,-6299,22449
4816000,-17836,2116,23212,1074,-7174,23663
4818000,-17576,1668,23072,1643,-8018,24968
4820000,-17224,1000,22812,2348,-8864,26293
4822000,-16496,200,22284,3141,-9688,27638
4824000,-15900,-688,21784,4010,-10412,28973
4826000,-14788,-2128,20956,4984,-11045,30260
4828000,-13628,-2912,19884,5856,-11638,31605
4830004,-12320,-3712,19220,6757,-12213,32767
4832000,-10968,-4412,18060,7671,-12693,32767
4834000,-9172,-5052,16892,8476,-13175,32767
4836000,-6952,-5572,15276,9338,-13546,32767
4838000,-4640,-6268,13904,9942,-13714,32767
4840000,-2212,-6968,12732,10504,-13982,32767
4842000,640,-7624,11380,10880,-14185,32767
4844000,3508,-7976,10068,11113,-14332,32767
4846000,6652,-8180,8836,11242,-14505,32767
4848000,10048,-8320,7664,11233,-14786,32767
4850000,13656,-8352,6424,11171,-15063,32767
4852000,17396,-8412,5452,10989,-15370,32767
4854000,21208,-8720,4116,10779,-15680,32767
4856000,24592,-8560,3328,10487,-15962,32767
4858000,28344,-8804,3268,10211,-16240,32767
4860000,32484,-8992,1748,9847,-16481,32767
4862004,32767,-8544,84,9250,-16501,32767
4864000,32767,-8548,-1788,8587,-16204,32623
4866000,32767,-8452,-3152,7708,-15734,30454
4868000,32767,-8172,-4832,6615,-15038,27882
4870000,32767,-7740,-6832,5390,-14124,25088
4872000,32767,-7164,-8560,3973,-12809,22037
4874000,32767,-6912,-9620,2436,-11205,18692
4876000,32767,-7024,-10096,823,-9568,14861
4878000,32767,-6968,-9724,-727,-8099,11005
4880000,32767,-5244,-9120,-2637,-5939,7669
4882000,32767,-5220,-9124,-4035,-5235,3864
4884000,32767,-4724,-11012,-6171,-3775,-82
4886000,32767,-3948,-7592,-8100,-2744,-3971
4888000,32767,-4020,-7196,-10115,-1845,-7729
4890000,32767,-3588,-7064,-12044,-823,-11268
4892004,32767,-3620,-5748,-13926,225,-14587
4894000,32767,-4020,-4160,-15631,1350,-17736
4896000,32767,-4608,-2280,-17169,2582,-20659
4898000,32767,-5320,496,-18352,3717,-23486
4900000,32767,-6040,3552,-19265,4730,-26127
4902000,32767,-6808,6536,-19850,5852,-28688
4904000,32767,-7640,9612,-20095,6886,-31145
4906004,31244,-8388,13868,-19956,7728,-32768
4908000,27864,-8908,16284,-19747,8276,-32768
4910000,24788,-9300,18576,-19352,8917,-32768
4912000,21536,-9168,20112,-18771,9865,-32768
4914000,18276,-8868,22484,-18091,11086,-32768
4916000,14748,-8312,24412,-17208,12233,-32768
4918000,11280,-8028,26448,-16283,13191,-32768
4920000,7744,-7496,27596,-15323,14275,-32768
4922000,4948,-7240,26960,-14205,15819,-32768
4924000,-4424,-3804,32692,-13061,16921,-32768
4926000,-19480,1104,24948,-12456,18556,-32768
4928004,-24496,-1344,25468,-11693,20153,-32768
4930000,-22144,-4976,30904,-10630,20836,-32768
4932000,-21388,-5580,31452,-9511,21196,-32768
4934000,-21584,-3532,31572,-8448,21315,-32768
4936000,-23524,-1000,30048,-7563,21935,-32768
4938000,-25376,508,28380,-7191,21612,-32768
4940000,-25976,-148,27964,-6335,21877,-32768
4942000,-27524,580,30204,-5644,22027,-32768
4944000,-28576,-84,31328,-4681,21622,-32768
4946000,-28388,-1808,30680,-3782,21329,-32768
4948000,-28700,-1396,30220,-2868,20735,-32768
4950000,-28720,-964,27396,-2052,20226,-32768
4952000,-29424,-1028,27852,-1067,19492,-32608
4954000,-29736,-688,28636,-145,18691,-31119
4956000,-30084,-620,27172,722,17795,-29600
4958004,-30364,-256,26212,1492,16956,-27867
4960004,-31560,712,26308,2267,16306,-25929
4962000,-32768,2168,24516,2756,15441,-23534
4964000,-32768,2592,21772,2852,14573,-21288
4966004,-31140,2080,20880,3046,13490,-19255
4968000,-32768,4296,18108,2672,12213,-16838
4970000,-31664,4272,17540,2476,11029,-14452
4972000,-30628,4400,16264,1977,9535,-12183
4974000,-28752,4116,15312,1432,7935,-9978
4976000,-26608,3680,14980,894,6254,-7922
4978000,-24060,3128,14920,356,4277,-5947
4980000,-21028,2136,15376,532,640,-4647
4982000,32767,808,12212,-1430,-2952,-6548
4984000,10240,4212,7160,-1472,846,-4109
4986000,-10748,-688,23128,-814,-2746,-2091
4988000,-16372,-2128,24276,-571,-5113,-369
4990000,-12332,96,19624,-41,-7283,972
4992000,-10004,2648,15004,-347,-8253,1976
4994000,-9288,4496,10252,-1123,-10042,2820
4996000,-12012,11828,14344,-2349,-11820,3599
4998000,14288,-3452,-7032,-4165,-11502,1749
5000000,4884,-1204,10012,-5068,-11156,1300
5002000,3052,1680,19276,-4780,-10919,1833
5004000,1796,3464,11040,-4987,-11402,2153
5006000,4212,580,11000,-5156,-10270,2093
5008000,5468,-484,12812,-5220,-9585,1849
5010000,7520,-1036,13968,-5119,-9070,1392
5012000,8228,-964,16344,-4529,-8339,694
5014000,7324,212,18496,-3683,-7272,294
5016000,5980,1368,18964,-2781,-6189,132
5018000,3872,1324,19484,-1969,-4929,185
5020000,3480,1604,17960,-1474,-3455,117
5022000,3048,2128,16172,-1162,-2090,104
5024000,2820,3944,17908,-1383,-1100,-256
5026000,6068,2760,6856,-1775,19,-774
5028000,3412,4260,11420,-2344,1292,-866
5030000,3120,2884,9112,-2712,1593,-961
5032000,1776,816,12504,-2942,2313,-971
5034000,1064,868,14536,-2975,2207,-938
5036004,916,312,16300,-2705,2083,-976
5038000,1084,-760,18676,-2202,2000,-960
5040000,964,-124,21148,-1566,1662,-951
5042000,876,1116,21724,-960,1352,-912
5044000,772,2028,21500,-527,1115,-886
5046000,116,2656,21324,-354,655,-835
5048000,76,2756,20600,-407,206,-891
5050000,-488,2792,20304,-477,-233,-838
5052000,-1036,2700,20704,-514,-736,-787
5054000,-1676,2476,21068,-537,-1182,-702
5056000,-2608,2188,21648,-452,-1816,-514
5058000,-3368,1960,22088,-346,-2333,-270
5060000,-3976,1956,22308,-181,-2678,59
5062000,-4564,1904,22168,-39,-2977,446
5064000,-4924,1696,22308,151,-3299,776
5066000,-5312,1608,22428,351,-3587,1133
5068000,-4928,1492,22148,523,-3863,1408
5070000,-4940,1204,22288,819,-4139,1683
5072000,-4844,1212,22240,1037,-4319,2007
5074000,-5488,1216,22408,1373,-4640,2350
5076000,-5204,1220,21764,1643,-4813,2780
5078000,-4796,984,21644,1989,-5069,3039
5080000,-4424,844,20768,2223,-5202,3331
5082004,-4112,792,20828,2498,-5328,3592
5084000,-3812,852,20220,2737,-5285,3831
5086004,-3464,916,19784,2959,-5206,4049
5088000,-2960,992,19160,3174,-4995,4208
5090000,-2624,1016,18456,3253,-4703,4361
5092000,-2148,1004,17868,3335,-4365,4440
5094004,-1736,1104,17480,3341,-4018,4452
5096000,-1256,1116,16924,3313,-3732,4466
5098000,-832,1032,16556,3256,-3400,4428
5100000,-512,1028,16244,3193,-3107,4368
5102000,-60,928,15816,3084,-2732,4307
5104000,168,940,15640,3001,-2350,4166
5106000,352,908,15428,2836,-2004,4075
5108000,412,956,15172,2679,-1592,3938
5110000,460,996,15048,2522,-1217,3854
5112000,508,952,14828,2345,-848,3706
5114000,560,1040,14888,2137,-487,3597
5116000,660,1156,14928,1985,-109,3526
5118000,664,1224,15112,1852,205,3412
5120000,492,1416,15400,1737,416,3364
5122000,604,1412,15708,1542,587,3296
5124000,804,1496,15992,1472,632,3285
5126000,956,1500,16412,1424,609,3189
5128000,1136,1500,16632,1430,547,3147
5130000,1284,1376,16872,1444,357,3081
5132000,1404,1308,17016,1562,185,3024
5134000,1556,1240,17136,1649,17,2975
5136000,1656,1168,17100,1802,-93,2843
5138000,1736,1316,17024,1903,-151,2786
5140000,1756,1392,16952,2027,-200,2732
5142000,1872,1440,16800,2097,-244,2637
5144000,1996,1656,16876,2224,-258,2563
5146000,2160,1776,16804,2268,-274,2488
5148004,2348,1768,16604,2316,-307,2423
5150000,3932,1360,15276,2371,-261,2247
5152000,156,3740,16740,2265,-559,2370
5154000,-496,3300,16868,2150,-473,2691
5156000,748,2720,12416,1612,-772,2766
5158000,2312,1492,13796,1306,-763,2730
5160000,3420,1304,15836,1235,-920,2494
5162004,4476,1452,16960,1276,-1219,2255
5164000,5352,1492,17384,1418,-1205,2075
5166000,6312,1128,18180,1686,-1200,1818
5168000,6760,1252,18424,1890,-1170,1588
5170000,6768,1780,17964,2016,-1055,1348
5172000,6540,2260,17320,2051,-739,1167
5174000,6608,2308,16652,2035,-394,975
5176000,6944,1976,16788,1978,-3,748
5178000,7372,1872,16636,1984,527,490
5180000,8008,1896,16684,2007,1155,152
5182000,8736,1860,16576,2050,2041,-221
5184004,9564,1848,17004,2146,3028,-613
5186000,10452,1768,16772,2245,4178,-1094
5188000,11288,1748,17456,2333,5390,-1602
5190000,11716,1572,17772,2537,6432,-2186
5192000,12448,1596,18196,2770,7528,-2705
5194000,13348,1304,18468,2955,8491,-3345
5196000,14188,1000,18024,3104,9201,-4092
5198000,15028,704,18184,3261,9985,-4886
5200000,16000,420,18156,3417,10472,-5717
5202000,16904,-80,18336,3566,10881,-6681
5204000,17796,-352,18548,3782,11233,-7667
5206000,18424,-696,18452,3951,11452,-8747
5208000,18588,-916,18244,4088,11430,-9840
5210000,18636,-1024,18164,4156,11162,-11025
5212000,18408,-856,18096,4259,10687,-12258
5214004,17872,-668,17960,4261,9998,-13533
5216000,16968,-276,17504,4232,9120,-14752
5218000,15832,240,17032,4134,8373,-15985
5220000,14236,480,16712,3965,7652,-17093
5222000,12436,512,16328,3754,7067,-18128
5224004,10436,400,15716,3512,6549,-19090
5226000,8220,264,15432,3256,6259,-19918
5228000,5780,184,15240,3066,5985,-20568
5230000,3232,32,15152,2912,5720,-21100
5232000,612,-20,15048,2781,5579,-21529
5234000,-1932,60,14888,2748,5394,-21789
5236000,-4448,232,14716,2764,5263,-21872
5238000,-6856,208,14556,2742,5310,-21771
5240000,-9444,76,14760,2785,5402,-21563
5242000,-11804,40,14556,2774,5458,-21149
5244000,-13992,136,14680,2809,5520,-20638
5246000,-16056,540,14692,2850,5533,-19956
5248000,-18120,964,14640,2859,5586,-19194
5250000,-19900,1108,14864,2858,5551,-18266
5252000,-21520,1364,14872,2818,5480,-17260
5254000,-22856,1596,14884,2746,5456,-16142
5256000,-24156,1860,14984,2583,5516,-14967
5258000,-25456,1940,15340,2465,5511,-13700
5260000,-27068,2244,15692,2258,5508,-12345
5262000,-28572,2396,15552,2086,5416,-10951
5264000,-30128,2604,15804,1834,5315,-9388
5266000,-32208,2712,16168,1627,5168,-7754
5268000,-32768,3144,16128,1409,4994,-5878
5270000,-32768,2948,15932,1186,4933,-3920
5272000,-32768,2028,18744,1113,4674,-2267
5274000,-32768,2820,17732,1024,3772,-254
5276000,-32768,3008,20104,1227,3000,2001
5278004,-32768,3160,21156,1372,1589,4324
5280000,-32768,3080,21396,1530,-99,6786
5282000,-32768,2880,21640,1667,-2050,9317
5284000,-32768,2760,21776,1729,-4426,11971
5286004,-32768,2576,22236,1885,-6822,14623
5288000,-32768,2236,22212,2082,-9334,17341
5290004,-32768,1756,22548,2364,-11877,20026
5292000,-32768,1284,22164,2664,-14403,22623
5294000,-32768,844,22024,2881,-16882,25242
5296000,-32768,520,21952,3160,-19309,27754
5298000,-32768,152,21536,3445,-21656,30177
5300000,-32768,-308,21160,3650,-23960,32506
5302000,-32768,-524,21108,3965,-25976,32767
5304000,-32768,-1072,20444,4175,-27664,32767
5306000,-30364,-1728,20028,4724,-29731,32767
5308000,-28388,-2304,19864,5218,-30984,32767
5310000,-24844,-3012,19108,5733,-32256,32767
5312000,-21384,-3632,17704,6201,-32768,32767
5314000,-17608,-4248,17072,6654,-32768,32767
5316000,-13144,-4984,14812,7133,-32768,32767
5318000,-8864,-5188,14944,7394,-32371,32767
5320000,-4388,-5868,13016,7731,-31621,32767
5322000,204,-5916,12304,7928,-30363,32767
5324000,5164,-6368,11232,8214,-28660,32767
5326000,9384,-6540,10524,8484,-26891,32767
5328000,13508,-6900,10108,8702,-24935,32767
5330000,18048,-7452,8896,9048,-22641,32767
5332000,21808,-7732,8536,9283,-20451,32767
5334000,25088,-7480,7872,9470,-18158,32767
5336000,28948,-8104,6908,9681,-15521,32767
5338004,30808,-7612,7512,9852,-13388,32767
5340000,32612,-6932,5864,9839,-11051,30349
5342004,32767,-6456,5820,9884,-8768,27767
5344000,32767,-5928,5432,9811,-6661,25144
5346000,32767,-5524,4972,9639,-4628,22491
5348000,32767,-5292,3656,9376,-2660,19951
5350000,32767,-4792,2692,8956,-574,17417
5352004,32767,-4796,1316,8466,1264,14889
5354000,32767,-3832,1608,7943,2878,12569
5356000,32767,-3852,1400,7318,4231,10276
5358000,32767,-3520,508,6457,5345,8046
5360000,32767,-2748,-376,5427,6179,5804
5362000,32767,-2020,-1304,4393,6557,3790
5364000,30852,-956,-516,3233,6602,2677
5366000,28144,-1172,-160,2232,7146,1446
5368000,26424,-1452,2180,1271,6380,223
5370000,25324,-1908,2108,367,6216,-764
5372000,22696,-1472,4388,-392,5539,-1486
5374000,20348,-900,5940,-990,4800,-2053
5376000,18072,-472,7928,-1523,4120,-2427
5378000,16244,-196,10032,-1906,3286,-2696
5380000,14556,364,12072,-2264,2430,-2912
5382000,13348,892,13824,-2393,1725,-2977
5384000,12208,1300,15464,-2457,1181,-3048
5386000,11244,1448,17140,-2419,789,-3182
5388000,10580,1720,18416,-2282,323,-3307
5390000,9716,1968,19856,-2062,47,-3427
5392000,9260,1912,20404,-1743,22,-3578
5394000,8596,1908,21804,-1345,44,-3714
5396000,8280,2084,22580,-892,363,-3904
5398000,8040,2208,23480,-510,753,-4134
5400000,7952,2408,23784,-8,1323,-4402
5402000,7948,2424,23672,440,2053,-4763
5404000,8000,2280,23740,912,2876,-5198
5406004,7964,2240,23872,1408,3665,-5696
5408000,8112,2364,23256,1699,4479,-6209
5410000,7716,2448,21772,2025,5248,-6660
5412000,7504,2400,21932,2320,5960,-7193
5414004,7116,2144,21624,2559,6557,-7585
5416000,6964,1760,20956,2745,7099,-8025
5418004,7060,1644,20476,2942,7705,-8493
5420000,6784,1764,19600,3111,8148,-8939
5422004,6488,1784,18648,3170,8673,-9331
5424000,7552,340,16588,3444,9470,-9829
5426000,304,6380,25856,1710,9276,-9488
5428000,-3848,7780,-11364,643,9862,-8425
5430000,-3388,3420,14084,-256,11269,-8134
5432004,-4356,1940,12572,-860,8761,-7867
5434000,-120,-1504,12068,-1032,9242,-8136
5436000,1268,-12,17272,-347,8886,-8120
5438000,2524,752,19064,137,8327,-8109
5440004,2464,280,19128,707,7972,-7954
5442000,3004,236,19736,1193,7796,-7837
5444000,3600,452,19852,1587,7180,-7929
5446000,4372,360,20156,2025,6342,-8154
5448004,5200,788,19420,2324,5447,-8493
5450000,6512,1192,18632,2530,4789,-8901
5452000,6480,1664,18376,2642,4006,-9149
5454000,5484,2128,17912,2531,3336,-9197
5456000,4336,2752,16720,2324,2752,-9130
5458000,2952,3420,15176,1965,2247,-8946
5460000,2168,3484,13648,1444,1877,-8684
5462000,1508,3656,13124,783,1437,-8390
5464000,1160,3816,12184,156,930,-8159
5466004,1008,3596,12012,-457,560,-7893
5468000,1008,3716,12364,-1051,121,-7608
5470004,1392,3568,12360,-1539,-147,-7299
5472000,1852,3160,13172,-1962,-413,-7060
5474000,2196,3128,13908,-2333,-784,-6866
5476000,2540,3180,14272,-2632,-1003,-6686
5478004,2744,3392,14548,-2830,-1149,-6554
5480000,2996,3640,14936,-3061,-1176,-6393
5482000,3536,3776,15204,-3235,-1043,-6351
5484000,4044,3824,15528,-3374,-835,-6368
5486000,4388,4028,16100,-3481,-604,-6439
5488000,4940,3972,16632,-3492,-246,-6595
5490000,5568,3928,16980,-3500,141,-6858
5492000,6064,3928,17688,-3409,538,-7211
5494000,6468,3932,18228,-3258,971,-7584
5496000,6748,3984,18696,-3106,1392,-7997
5498000,7012,3804,18820,-2890,1985,-8485
5500000,6980,3620,19252,-2603,2615,-8956
5502000,6896,3488,19408,-2297,3272,-9476
5504000,6604,3404,19764,-1939,3975,-9964
5506000,6212,3248,19652,-1473,4715,-10436
5508000,5692,3184,19512,-1062,5428,-10867
5510000,5260,3020,19184,-699,6338,-11263
5512000,4728,2940,19024,-312,7216,-11626
5514000,4132,2928,18564,22,8091,-11967
5516000,3652,2984,18080,352,8955,-12283
5518000,3108,3164,17712,596,9856,-12546
5520000,2700,3152,17336,777,10617,-12768
5522000,2356,3152,17300,955,11210,-12981
5524000,1952,3184,17184,1090,11483,-13175
5526000,1416,3164,17352,1191,11402,-13368
5528000,768,3056,17616,1282,10890,-13443
5530000,-52,3048,17800,1297,10057,-13431
5532000,-908,2892,18064,1304,9006,-13385
5534000,-1972,2688,18132,1330,7680,-13190
5536000,-3164,2608,17768,1230,6233,-12927
5538000,-4540,2540,17784,1143,4771,-12651
5540000,-5944,2620,17520,970,3376,-12280
5542000,-7472,2744,17116,821,2095,-11851
5544004,-9088,2760,16684,591,974,-11373
5546004,-10988,2840,16216,353,93,-10863
5548000,-13304,3048,16340,-24,-657,-10252
5550000,-14816,3120,16092,-225,-1183,-9557
5552000,-18932,3740,15684,-460,-1351,-8481
5554000,-20876,3424,14416,-958,-1569,-7479
5556000,-23408,3724,13712,-1454,-1763,-6432
5558000,-25880,3860,12676,-2018,-1711,-5238
5560000,-27728,3436,13180,-2387,-1802,-4024
5562000,-29300,2656,14516,-2558,-1802,-2829
5564000,-30784,2144,15052,-2616,-1935,-1497
5566000,-32768,2012,16152,-2548,-1955,74
5568004,-32768,1840,16432,-2430,-1926,1785
5570000,-32768,768,16324,-2308,-1637,3147
5572000,-32768,-8,17720,-1893,-2081,4675
5574000,-32768,1176,17724,-1578,-1583,6487
5576000,-32768,1456,19556,-1122,-1419,8363
5578000,-32768,1172,18264,-810,-1275,10325
5580000,-32768,1008,18172,-568,-1002,12403
5582000,-32768,972,17844,-288,-947,14599
5584000,-32768,716,17900,5,-869,16914
5586000,-32768,204,17520,290,-972,19296
5588000,-32768,-208,17376,593,-1160,21619
5590000,-32768,-800,17024,895,-1589,23953
5592000,-31496,-1620,16828,1198,-2232,26213
5594000,-28476,-2396,16692,1482,-3104,28196
5596000,-25136,-3300,16596,1962,-4163,30231
5598004,-21400,-4460,16444,2407,-5411,32101
5600000,-17512,-5556,16708,2883,-6802,32767
5602000,-13304,-6312,16640,3338,-8311,32767
5604000,-8848,-6756,16508,3838,-9895,32767
5606000,-4232,-7080,16136,4267,-11458,32767
5608004,656,-7524,15560,4741,-12791,32767
5610000,5132,-7700,15172,5189,-14137,32767
5612000,9572,-7892,13860,5505,-15228,32767
5614000,14164,-7776,13156,5742,-15922,32767
5616000,18248,-7500,12136,5905,-16593,32767
5618000,22068,-7052,10800,5885,-17077,32767
5620000,26252,-6352,9560,5678,-17335,32767
5622000,29692,-5568,8244,5350,-17526,32767
5624000,32767,-4800,6672,4788,-17508,32767
5626000,32767,-4048,5392,4136,-17437,31689
5628000,32767,-3564,3852,3340,-17213,29708
5630000,32767,-3220,2856,2500,-16918,27486
5632000,32767,-3028,1380,1561,-16377,25024
5634000,32767,-3108,228,538,-15704,22266
5636000,32767,-2980,-888,-514,-14829,19420
5638000,32767,-2836,-1844,-1625,-13651,16468
5640000,32767,-2580,-2848,-2818,-12098,13271
5642000,32767,-2120,-3472,-4046,-10443,10087
5644000,32767,-2120,-3892,-5312,-8482,6643
5646000,32767,-2144,-3328,-6440,-6596,2982
5648000,32767,-1676,-1628,-7621,-5084,10
5650000,32767,-1376,-3108,-8659,-2516,-3178
5652000,32767,-1236,956,-9668,-1100,-6487
5654000,32767,-1104,356,-10717,899,-9627
5656000,32767,-980,1644,-11524,3016,-12494
5658000,32767,-920,2620,-12252,4929,-15163
5660000,32767,-1424,3724,-12802,6955,-17673
5662000,32767,-2020,5932,-13180,8821,-20062
5664000,32767,-2388,8240,-13273,10393,-22278
5666000,32767,-2640,10428,-13175,11902,-24423
5668000,31888,-3024,12796,-12916,13134,-26324
5670004,28128,-3000,15460,-12565,13864,-27965
5672000,23876,-2816,17912,-12145,14059,-29424
5674004,19464,-2248,20036,-11614,13922,-30616
5676000,15388,-1524,21232,-11104,13893,-31471
5678000,11480,-892,22196,-10643,13907,-32068
5680000,7408,-436,23800,-10195,13660,-32470
5682000,3144,-32,25204,-9747,13111,-32601
5684000,-732,480,26008,-9264,12535,-32590
5686000,-4444,1544,25832,-9013,12079,-32337
5688000,-8336,2148,26188,-8726,11664,-31886
5690000,-12264,2608,26620,-8558,11132,-31314
5692000,-15608,3008,27408,-8438,10645,-30546
5694000,-19416,3736,26868,-8321,9927,-29657
5696004,-21952,3948,31320,-8054,9376,-28513
5698000,-32768,12128,19856,-9108,8148,-25278
5700000,-32768,9584,19688,-9736,7863,-21580
5702000,-32768,4236,27944,-9918,5877,-19098
5704000,-32768,2736,27064,-10077,3612,-17296
5706000,-32768,3444,28180,-9457,2948,-15829
5708000,-32768,4812,32124,-8557,1676,-14061
5710000,-32768,5204,32767,-7681,637,-12255
5712000,-32768,4384,32767,-6613,28,-10379
5714000,-32768,3388,32767,-5233,-340,-8715
5716000,-32768,2532,32767,-3696,-749,-7366
5718000,-32768,2192,32767,-1900,-779,-6106
5720000,-32364,2628,32767,-117,-465,-4941
5722004,-31572,2524,32767,1635,-259,-3911
5724000,-30628,2240,32767,3329,195,-2962
5726000,-31252,2888,32548,4834,769,-1807
5728000,-32768,4016,29676,5939,1681,-323
5730000,-31524,3640,26300,6687,2730,1092
5732000,-31036,4116,24316,7282,3220,2474
5734000,-30964,5048,21168,7598,4381,3948
5736004,-28512,4024,20340,7839,5141,5236
5738000,-26956,3984,19088,7964,5463,6596
5740000,-24236,3148,16664,8079,6063,7941
5742000,-21432,2380,16316,8118,6103,9220
5744000,-18408,1524,15372,8207,5690,10479
5746000,-15144,860,14608,8278,4952,11562
5748000,-11608,200,13680,8356,4023,12578
5750000,-8100,-360,12796,8440,2906,13441
