micros,ax,ay,az,gx,gy,gz
0,-6304,-808,15660,297,2153,-17585
2000,-6244,-876,15512,271,2201,-17530
4004,-6228,-920,15516,298,2269,-17481
6000,-6112,-1032,15472,265,2293,-17460
8004,-5988,-996,15400,258,2281,-17380
10000,-6024,-1032,15468,235,2362,-17334
12000,-5940,-1004,15264,247,2377,-17296
14000,-5840,-996,15232,249,2429,-17298
16000,-5832,-1080,15036,265,2470,-17215
18004,-5744,-1004,15244,273,2431,-17234
20000,-5744,-1124,14988,308,2482,-17217
22000,-5652,-1156,15020,266,2492,-17163
24000,-5660,-1188,14952,302,2521,-17142
26000,-5740,-1292,14924,306,2571,-17089
28000,-5696,-1316,14968,317,2614,-17028
30000,-5704,-1320,14864,347,2656,-16975
32000,-5748,-1316,15004,323,2708,-16895
34000,-5692,-1336,15116,359,2732,-16825
36000,-5744,-1376,15036,401,2734,-16770
38000,-5800,-1320,15228,389,2693,-16682
40004,-5784,-1404,15236,404,2663,-16606
42000,-5808,-1328,15292,410,2619,-16498
44000,-5792,-1272,15352,429,2588,-16412
46000,-5804,-1228,15476,496,2543,-16329
48000,-5780,-1220,15464,495,2431,-16216
50000,-5812,-1228,15772,533,2384,-16058
52000,-5820,-1156,15896,576,2257,-15930
54000,-5824,-1144,16120,592,2146,-15847
56000,-5876,-1100,16216,636,2001,-15730
58000,-5832,-1148,16344,677,1894,-15582
60000,-5884,-1100,16408,697,1799,-15473
62000,-5860,-1116,16472,679,1674,-15342
64000,-5868,-1108,16632,700,1549,-15230
66004,-5884,-1156,16632,701,1387,-15158
68000,-5932,-1132,16756,661,1232,-15015
70000,-6012,-1124,16668,689,1107,-14918
72000,-6092,-1136,16604,651,932,-14750
74000,-6168,-1148,16652,623,737,-14616
76000,-6184,-1128,16564,556,572,-14525
78000,-6152,-1188,16496,446,425,-14436
80000,-6116,-1188,16412,310,255,-14332
82000,-6044,-1228,16404,256,104,-14246
84004,-6080,-1208,16556,165,-19,-14153
86000,-6128,-1180,16536,68,-179,-14066
88000,-6108,-1144,16460,-8,-357,-14003
90000,-6084,-1292,16424,-99,-529,-13869
92000,-6024,-1220,16340,-190,-673,-13747
94000,-5940,-1304,16316,-215,-773,-13639
96000,-5892,-1312,16208,-317,-875,-13520
98000,-5824,-1356,16064,-363,-934,-13368
100000,-5784,-1452,16012,-434,-1008,-13260
102000,-5772,-1436,16036,-520,-1064,-13133
104000,-5732,-1412,15888,-580,-1143,-13001
106000,-5588,-1460,15728,-588,-1219,-12896
108000,-5556,-1496,15700,-680,-1239,-12775
110000,-5604,-1528,15612,-740,-1164,-12651
112000,-5236,-1608,15208,-756,-1405,-12540
114000,-5304,-1616,15232,-835,-1317,-12358
116000,-5424,-1688,15256,-900,-1383,-12252
118000,-5348,-1788,15060,-899,-1389,-12106
120000,-5408,-1924,14908,-1000,-1336,-12001
122000,-5368,-2008,14788,-1067,-1270,-11834
124000,-5344,-2204,14664,-1127,-1153,-11764
126000,-5240,-2380,14484,-1199,-1130,-11670
128000,-5388,-2564,14412,-1249,-972,-11605
130000,-5280,-2788,14264,-1318,-834,-11544
132000,-5328,-3024,14276,-1411,-705,-11502
134000,-5356,-3092,14348,-1491,-584,-11448
136004,-5376,-3244,14232,-1545,-423,-11447
138000,-5428,-3312,14264,-1678,-348,-11441
140000,-5380,-3440,14208,-1716,-231,-11485
142000,-5488,-3536,14372,-1809,-100,-11565
144004,-5536,-3540,14332,-1852,-16,-11569
146000,-5552,-3532,14416,-1874,130,-11660
148000,-5620,-3532,14504,-1928,288,-11749
150000,-5648,-3512,14496,-1983,411,-11810
152000,-5720,-3504,14616,-2002,429,-11836
154000,-5704,-3396,14724,-1987,568,-11870
156000,-5648,-3316,14784,-2004,609,-11921
158000,-5680,-3280,14992,-2017,692,-11913
160000,-5588,-3100,14900,-1978,695,-11973
162000,-5568,-3020,15072,-1998,695,-11944
164000,-5524,-2960,15228,-1963,688,-11915
166000,-5472,-2872,15344,-1910,706,-11885
168004,-5416,-2764,15512,-1871,701,-11872
170000,-5388,-2704,15724,-1840,678,-11780
172000,-5272,-2660,15832,-1829,589,-11715
174000,-5304,-2516,16100,-1730,550,-11627
176000,-5368,-2352,15948,-1753,485,-11563
178000,-5036,-2268,15720,-1830,444,-11467
180000,-5140,-2388,16108,-1826,319,-11348
182000,-5352,-2204,16664,-1794,212,-11211
184000,-5312,-2236,16700,-1796,151,-11074
186000,-5116,-2212,16644,-1807,38,-10977
188000,-5188,-2196,16732,-1819,-104,-10756
190000,-5156,-2176,16916,-1777,-192,-10616
192000,-5188,-2192,16868,-1735,-296,-10449
194000,-5244,-2112,16820,-1754,-469,-10275
196000,-5156,-2188,16668,-1711,-612,-10111
198000,-5196,-2160,16568,-1749,-753,-9954
200000,-5084,-2196,16256,-1737,-848,-9781
202000,-5104,-2260,16228,-1770,-953,-9598
204000,-4980,-2328,15920,-1825,-1057,-9478
206000,-4996,-2448,15884,-1890,-1148,-9314
208000,-4896,-2596,15648,-2001,-1208,-9183
210000,-4856,-2708,15360,-2060,-1177,-9102
212004,-4800,-2796,15280,-2161,-1184,-8997
214000,-4680,-2988,14980,-2240,-1142,-8906
216000,-4676,-3036,14804,-2322,-1036,-8810
218000,-4632,-3220,14624,-2404,-994,-8812
220000,-4524,-3376,14756,-2465,-845,-8778
222000,-4460,-3528,14528,-2489,-694,-8790
224000,-4460,-3816,14548,-2564,-508,-8800
226000,-4460,-3840,14444,-2550,-293,-8846
228000,-4504,-3976,14492,-2538,-102,-8928
230000,-4532,-4124,14480,-2557,82,-8977
232000,-4476,-4192,14472,-2512,287,-9015
234000,-4552,-4328,14540,-2496,457,-9179
236000,-4524,-4364,14532,-2446,555,-9223
238000,-4604,-4440,14648,-2387,646,-9320
240000,-4520,-4472,14812,-2379,752,-9407
242000,-4584,-4496,14944,-2326,869,-9523
244000,-4616,-4436,15004,-2224,902,-9680
246000,-4716,-4440,15268,-2146,894,-9740
248000,-4792,-4428,15312,-2048,857,-9844
250000,-4832,-4440,15452,-1984,758,-9969
252000,-4904,-4452,15652,-1880,627,-10043
254000,-4948,-4352,15756,-1764,437,-10147
256000,-4972,-4388,15900,-1674,276,-10221
258000,-5000,-4284,15892,-1570,110,-10294
260000,-5068,-4304,15928,-1476,-110,-10340
262000,-5024,-4256,16028,-1352,-280,-10371
264004,-5072,-4184,16112,-1233,-451,-10370
266000,-5028,-4152,15952,-1118,-650,-10422
268000,-4960,-4136,15972,-1045,-811,-10427
270000,-4968,-4084,15960,-927,-975,-10409
272000,-4924,-4096,16000,-804,-1115,-10418
274004,-4804,-4064,15936,-785,-1283,-10396
276000,-4724,-3932,16000,-659,-1412,-10408
278000,-4640,-3940,15924,-604,-1524,-10363
280000,-4520,-3856,15868,-515,-1596,-10279
282000,-4484,-3788,15752,-433,-1618,-10326
284000,-4360,-3760,15692,-395,-1684,-10214
286000,-4236,-3780,15540,-369,-1633,-10164
288000,-4060,-3720,15456,-316,-1662,-10133
290000,-3896,-3656,15116,-323,-1608,-10095
292000,-3752,-3656,14920,-278,-1520,-10051
294000,-3620,-3780,14792,-306,-1390,-10038
296004,-3476,-3800,14704,-233,-1236,-10050
298000,-3536,-3856,14692,-233,-995,-10086
300000,-3416,-3924,14572,-205,-751,-10169
302000,-3480,-3988,14692,-195,-506,-10247
304000,-3536,-4188,14768,-159,-234,-10396
306000,-3612,-4268,14736,-154,54,-10565
308000,-3760,-4356,14724,-124,275,-10756
310000,-3852,-4420,14796,-97,539,-10908
312000,-3980,-4416,14732,-118,770,-11135
314000,-4140,-4580,14892,-128,982,-11349
316000,-4288,-4632,14984,-155,1152,-11572
318000,-4368,-4676,15028,-164,1324,-11768
320000,-4452,-4712,15200,-157,1518,-12005
322000,-4568,-4780,15436,-163,1623,-12240
324000,-4548,-4764,15476,-197,1746,-12500
326000,-4672,-4724,15576,-152,1823,-12736
328000,-4816,-4808,15688,-137,1837,-12981
330000,-4860,-4732,15640,-170,1899,-13242
332000,-4952,-4836,15680,-143,1866,-13492
334000,-4912,-4752,15656,-81,1912,-13718
336000,-4780,-4740,15680,-94,1892,-13956
338000,-4784,-4768,15704,-53,1863,-14169
340004,-4760,-4732,15624,-50,1885,-14371
342000,-4716,-4756,15596,-45,1934,-14523
344004,-4744,-4664,15548,-15,1932,-14667
346000,-4744,-4596,15600,29,1918,-14866
348000,-4648,-4584,15588,50,1932,-14980
350000,-4648,-4616,15372,56,1914,-15087
352000,-4652,-4684,15500,86,1950,-15203
354000,-4612,-4748,15320,95,1972,-15273
356000,-4504,-4780,15480,132,1925,-15344
358000,-4488,-4804,15476,94,1913,-15400
360000,-4352,-4828,15492,126,1873,-15428
362000,-4264,-4880,15400,95,1823,-15464
364000,-4204,-4812,15488,72,1744,-15486
366000,-4012,-4868,15372,69,1672,-15490
368000,-3976,-4872,15440,15,1618,-15510
370000,-3812,-4892,15516,32,1566,-15484
372000,-3748,-4848,15440,-18,1472,-15486
374000,-3676,-4860,15524,-52,1363,-15413
376000,-3672,-4760,15372,-73,1215,-15364
378000,-3612,-4740,15476,-83,1173,-15348
380000,-3464,-4632,15532,-126,1056,-15270
382000,-3500,-4600,15652,-183,939,-15186
384000,-3388,-4592,15596,-215,808,-15073
386000,-3388,-4552,15508,-244,766,-14984
388004,-3248,-4436,15468,-324,736,-14897
390000,-3372,-4512,15624,-337,687,-14770
392004,-3348,-4552,15488,-417,585,-14615
394000,-3228,-4472,15612,-472,458,-14546
396000,-3300,-4556,15492,-532,321,-14406
398000,-3244,-4592,15364,-555,243,-14295
400000,-3196,-4664,15360,-689,149,-14201
402004,-3232,-4708,15224,-798,155,-14101
404000,-3164,-4812,15276,-881,145,-14043
406000,-3160,-4860,15376,-997,119,-14004
408000,-3312,-5012,15540,-1091,40,-13928
410000,-3260,-5176,15452,-1197,-71,-13898
412000,-3352,-5172,15408,-1369,-88,-13891
414000,-3304,-5268,15356,-1519,-102,-13890
416000,-3288,-5344,15392,-1642,-97,-13868
418000,-3372,-5388,15280,-1800,-81,-13825
420000,-3408,-5416,15344,-1950,-60,-13820
422000,-3404,-5448,15148,-2088,6,-13837
424004,-3484,-5360,15148,-2272,69,-13812
426000,-3456,-5420,15024,-2342,91,-13781
428000,-3456,-5372,15120,-2506,103,-13780
430000,-3408,-5260,14996,-2587,145,-13719
432000,-3324,-5320,15000,-2712,171,-13663
434000,-3268,-5296,14924,-2770,190,-13570
436000,-3276,-5300,15004,-2823,214,-13499
438000,-3244,-5208,14924,-2916,214,-13401
440000,-3084,-5128,14936,-2973,150,-13245
442000,-2976,-5144,15000,-2999,106,-13118
444000,-2952,-5156,14980,-3013,29,-12986
446000,-2792,-5068,15012,-2954,-4,-12821
448000,-2756,-5128,15032,-2948,-72,-12667
450000,-2640,-5124,15080,-2904,-157,-12469
452000,-2652,-5056,14980,-2886,-260,-12213
454000,-2600,-5064,15000,-2745,-313,-12008
456000,-2524,-5092,15036,-2716,-400,-11750
458000,-2512,-5112,14988,-2623,-505,-11455
460000,-2540,-5180,14872,-2513,-595,-11151
462000,-2528,-5220,14832,-2444,-684,-10877
464000,-2496,-5236,14964,-2299,-823,-10511
466000,-2588,-5200,14904,-2222,-907,-10189
468004,-2540,-5192,14908,-2154,-989,-9848
470000,-2584,-5248,14856,-2042,-1099,-9537
472000,-2488,-5240,14892,-1972,-1224,-9228
474000,-2452,-5308,15056,-1849,-1298,-8933
476000,-2428,-5220,15092,-1758,-1509,-8580
478000,-2380,-5384,15152,-1700,-1584,-8284
480000,-2284,-5340,15092,-1608,-1695,-8029
482000,-2316,-5352,15220,-1543,-1813,-7756
484000,-2276,-5424,15180,-1492,-1854,-7532
486000,-2240,-5432,15224,-1475,-1884,-7367
488000,-2256,-5436,15180,-1444,-1908,-7184
490000,-2380,-5592,15044,-1406,-1964,-7042
492000,-2412,-5660,15080,-1396,-1917,-6848
494000,-2404,-5596,14948,-1390,-1891,-6714
496000,-2396,-5616,15084,-1388,-1875,-6563
498000,-2424,-5612,14888,-1436,-1825,-6459
500000,-2488,-5712,15008,-1446,-1796,-6293
502000,-2516,-5760,14964,-1461,-1769,-6206
504000,-2536,-5652,15012,-1529,-1708,-6090
506000,-2516,-5704,15044,-1579,-1654,-5969
508000,-2532,-5740,15192,-1635,-1617,-5831
510000,-2608,-5708,15084,-1623,-1619,-5752
512000,-2480,-5812,15176,-1701,-1650,-5639
514000,-2340,-5780,15192,-1747,-1624,-5536
516004,-2324,-5852,15416,-1820,-1724,-5398
518000,-2296,-5700,15172,-1852,-1778,-5307
520004,-2160,-5752,15236,-1914,-1894,-5170
522000,-2112,-5792,15232,-1900,-1928,-5017
524000,-1972,-5704,15204,-1982,-2015,-4900
526000,-1960,-5648,15112,-1949,-2048,-4723
528004,-1876,-5616,14960,-1973,-2101,-4576
530000,-1792,-5592,14956,-2016,-2137,-4366
532000,-1680,-5568,14916,-1987,-2210,-4197
534000,-1544,-5660,14664,-2044,-2246,-4015
536000,-1480,-5592,14564,-1997,-2248,-3877
538000,-1332,-5704,14412,-1952,-2192,-3698
540000,-1280,-5720,14372,-1937,-2111,-3540
542000,-1260,-5864,14380,-1911,-2076,-3394
544000,-1176,-5924,14180,-1903,-2028,-3208
546000,-1132,-6000,14124,-1860,-1932,-3111
548000,-1112,-6092,14132,-1842,-1805,-2961
550000,-1056,-6132,14176,-1767,-1727,-2839
552000,-988,-6148,14072,-1757,-1582,-2739
554000,-1040,-6216,14044,-1748,-1455,-2640
556000,-976,-6304,13912,-1701,-1301,-2556
558000,-1076,-6432,13960,-1685,-1101,-2402
560000,-1104,-6404,14080,-1662,-1016,-2281
562004,-1168,-6520,14132,-1664,-935,-2173
564000,-1268,-6552,14192,-1617,-873,-2071
566000,-1232,-6596,14164,-1589,-805,-1963
568000,-1348,-6540,14284,-1568,-770,-1861
570000,-1316,-6528,14152,-1523,-742,-1805
572000,-1284,-6608,14324,-1515,-696,-1686
574000,-1268,-6564,14364,-1481,-678,-1614
576000,-1308,-6652,14424,-1409,-687,-1528
578000,-1260,-6664,14460,-1394,-687,-1420
580000,-1252,-6672,14460,-1317,-721,-1307
582000,-1300,-6728,14380,-1302,-786,-1200
584000,-1276,-6728,14464,-1250,-766,-1059
586000,-1348,-6592,14448,-1251,-837,-939
588000,-1324,-6640,14360,-1180,-825,-762
590000,-1372,-6676,14496,-1145,-911,-688
592000,-1380,-6676,14368,-1070,-913,-592
594004,-1408,-6740,14396,-1013,-916,-443
596004,-1444,-6664,14504,-955,-984,-316
598000,-1396,-6732,14536,-853,-1013,-196
600000,-1452,-6816,14540,-814,-1025,-98
602000,-1472,-6888,14692,-743,-1016,-34
604000,-1512,-6960,14744,-707,-1077,101
606000,-1592,-7012,14728,-630,-1102,162
608000,-1624,-7080,14608,-548,-1200,263
610000,-1568,-7200,14632,-490,-1295,351
612000,-1560,-7112,14688,-435,-1275,399
614000,-1544,-7148,14628,-387,-1329,492
616000,-1584,-7072,14460,-334,-1383,541
618000,-1588,-7176,14552,-305,-1376,529
620000,-1636,-7144,14564,-228,-1424,507
622000,-1620,-7120,14468,-182,-1466,518
624000,-1608,-7116,14568,-177,-1457,534
626000,-1608,-7188,14508,-88,-1456,424
628000,-1644,-7208,14416,-76,-1413,349
630000,-1588,-7216,14468,-9,-1335,269
632000,-1684,-7164,14392,23,-1219,115
634000,-1664,-7120,14452,54,-1084,29
636000,-1712,-7128,14420,73,-967,-118
638000,-1728,-7112,14600,76,-894,-240
640000,-1776,-7032,14632,15,-813,-410
642000,-1788,-6884,14572,12,-684,-581
644000,-1760,-6904,14464,11,-596,-715
646000,-1772,-6736,14548,-36,-483,-858
648004,-1856,-6692,14660,-57,-354,-1012
650000,-1748,-6736,14704,-154,-298,-1079
652000,-1796,-6660,14616,-220,-179,-1253
654000,-1812,-6704,14792,-252,-94,-1326
656000,-1860,-6712,14788,-311,-136,-1417
658004,-1776,-6712,14840,-346,-157,-1469
660000,-1780,-6704,14772,-441,-160,-1537
662000,-1800,-6704,14680,-491,-149,-1563
664000,-1740,-6664,14692,-583,-185,-1589
666000,-1724,-6692,14660,-626,-193,-1669
668000,-1788,-6616,14648,-665,-254,-1613
670000,-1780,-6668,14628,-682,-232,-1680
672000,-1804,-6692,14768,-695,-243,-1691
674000,-1804,-6780,14772,-715,-208,-1677
676000,-1860,-6776,14788,-754,-192,-1667
678000,-1868,-6760,14820,-757,-194,-1644
680004,-1960,-6728,14760,-718,-213,-1662
682000,-1972,-6792,14760,-717,-137,-1650
684000,-2036,-6800,14632,-748,-127,-1639
686000,-2024,-6968,14800,-758,-138,-1637
688000,-2000,-6916,14728,-739,-124,-1606
690000,-2056,-6924,14804,-749,-128,-1586
692000,-2004,-6984,14816,-807,-129,-1521
694000,-2024,-7000,14764,-813,-165,-1499
696000,-2100,-6924,14712,-809,-193,-1456
698000,-2136,-7032,14576,-871,-233,-1448
700000,-2120,-7040,14736,-840,-278,-1395
702000,-2088,-7024,14724,-829,-278,-1402
704000,-2092,-7072,14800,-839,-273,-1369
706000,-2036,-7192,14852,-847,-298,-1390
708000,-2024,-7104,14924,-838,-339,-1434
710000,-1928,-7120,14896,-831,-326,-1430
712000,-2008,-7188,14840,-812,-278,-1413
714000,-1924,-7108,14828,-839,-305,-1460
716000,-1956,-7180,14848,-835,-302,-1461
718000,-1924,-7092,14768,-869,-287,-1489
720000,-1988,-7108,14780,-855,-269,-1481
722000,-1996,-7064,14836,-920,-263,-1448
724004,-1968,-6972,14720,-910,-266,-1454
726000,-2028,-6900,14712,-869,-247,-1383
728000,-1912,-6880,14752,-927,-253,-1348
730000,-1940,-6860,14748,-944,-151,-1293
732000,-1908,-6912,14832,-916,-150,-1271
734000,-1824,-6920,14796,-905,-187,-1178
736000,-1868,-7024,14808,-905,-212,-1090
738000,-1788,-7048,14792,-913,-286,-1005
740000,-1824,-7032,14744,-846,-339,-918
742000,-1780,-7052,14864,-817,-359,-811
744000,-1884,-7016,14880,-787,-473,-739
746000,-1740,-7024,14872,-750,-488,-663
748000,-1784,-6984,14784,-698,-498,-566
750000,-1820,-6944,14732,-664,-538,-465
752000,-1916,-6988,14944,-600,-605,-404
754000,-1932,-6936,14876,-493,-616,-285
756000,-1948,-6904,14756,-424,-608,-219
758000,-2048,-6988,14840,-361,-655,-95
760000,-1988,-6980,14960,-289,-727,-71
762000,-2092,-6952,14872,-247,-773,29
764000,-2180,-6904,14896,-178,-806,89
766000,-2144,-6904,14776,-102,-818,151
768000,-2212,-6884,14852,-80,-853,178
770000,-2296,-6936,14848,14,-906,165
772004,-2312,-6916,14840,25,-912,179
774000,-2408,-6904,15072,81,-985,156
776004,-2448,-6912,15044,144,-1034,104
778000,-2552,-6932,15104,167,-1067,50
780000,-2672,-6984,15240,160,-1178,-5
782000,-2768,-7068,15284,211,-1245,-34
784000,-2824,-7108,15288,192,-1303,-188
786004,-2912,-7072,15364,225,-1421,-287
788000,-2940,-7108,15268,256,-1505,-440
790000,-2940,-7064,15484,181,-1609,-576
792000,-2952,-7144,15504,144,-1752,-742
794000,-3012,-7168,15504,124,-1817,-919
796000,-2924,-7236,15656,114,-1962,-1058
798000,-2980,-7260,15776,77,-2113,-1200
800000,-3052,-7228,15716,68,-2259,-1353
802000,-3068,-7300,15824,2,-2422,-1501
804000,-3092,-7288,15620,-45,-2596,-1669
806000,-3096,-7240,15380,-70,-2714,-1815
808000,-3048,-7196,15396,-91,-2820,-1942
810000,-3056,-7164,15328,-141,-2929,-2078
812000,-3008,-7176,15256,-181,-2972,-2218
814000,-2960,-7304,15248,-221,-3076,-2389
816000,-2872,-7288,15136,-304,-3180,-2562
818000,-2812,-7316,15140,-323,-3171,-2734
820000,-2776,-7368,15004,-359,-3188,-2962
822000,-2788,-7392,14996,-467,-3145,-3133
824000,-2676,-7396,14708,-501,-3097,-3385
826000,-2596,-7472,14672,-587,-3012,-3579
828000,-2656,-7456,14500,-675,-2904,-3842
830000,-2608,-7560,14572,-726,-2894,-4101
832000,-2504,-7644,14488,-862,-2814,-4368
834000,-2400,-7680,14528,-896,-2728,-4688
836000,-2328,-7768,14548,-1009,-2608,-5007
838000,-2296,-7868,14480,-1126,-2496,-5354
840000,-2292,-7840,14428,-1166,-2391,-5702
842000,-2120,-7816,14336,-1271,-2238,-6053
844000,-2144,-7800,14416,-1307,-2156,-6399
846000,-2184,-7832,14500,-1421,-2112,-6725
848000,-2048,-7868,14444,-1516,-2076,-7098
850000,-2164,-7776,14456,-1591,-2078,-7367
852004,-2044,-7728,14456,-1617,-2008,-7662
854000,-1968,-7800,14260,-1671,-2011,-7924
856004,-1920,-7836,14436,-1732,-1952,-8206
858000,-1956,-7704,14264,-1771,-1849,-8494
860000,-1876,-7716,14252,-1743,-1809,-8710
862000,-1896,-7632,14208,-1759,-1705,-9006
864000,-2024,-7644,14312,-1759,-1667,-9229
866000,-2000,-7584,14336,-1770,-1666,-9488
868000,-1924,-7440,14364,-1741,-1639,-9730
870000,-1956,-7640,14548,-1716,-1631,-10009
872000,-1888,-7628,14684,-1689,-1653,-10275
874000,-1832,-7760,14772,-1607,-1781,-10506
876000,-1756,-7712,15104,-1559,-1870,-10766
878000,-1724,-7692,15320,-1458,-2093,-11053
880000,-1664,-7716,15428,-1310,-2245,-11270
882000,-1724,-7788,15672,-1170,-2486,-11494
884000,-1648,-7800,15716,-985,-2819,-11700
886000,-1644,-7800,15732,-809,-3082,-11926
888000,-1632,-7820,15768,-649,-3380,-12110
890000,-1652,-7816,15596,-429,-3733,-12362
892000,-1560,-7812,15576,-246,-4082,-12562
894000,-1640,-7884,15388,-63,-4358,-12652
896000,-1652,-7836,15360,79,-4630,-12814
898000,-1548,-7792,15320,271,-4901,-12960
900004,-1552,-7744,15420,467,-5121,-13072
902000,-1548,-7720,15152,639,-5240,-13184
904004,-1520,-7696,14952,774,-5358,-13252
906000,-1524,-7584,15104,937,-5454,-13275
908000,-1476,-7568,14764,1109,-5432,-13392
910000,-1488,-7452,14680,1261,-5368,-13412
912000,-1532,-7384,14540,1400,-5256,-13424
914004,-1460,-7244,14352,1474,-5225,-13467
916000,-1352,-7284,14164,1550,-5117,-13504
918000,-1184,-7228,14060,1615,-4955,-13518
920000,-1084,-7220,14068,1649,-4845,-13588
922000,-972,-7124,14232,1639,-4728,-13644
924000,-864,-7180,14216,1727,-4586,-13729
926000,-712,-7160,14260,1719,-4509,-13826
928000,-592,-7132,14500,1693,-4475,-13917
930000,-584,-7160,14672,1731,-4527,-14042
932000,-504,-7364,14576,1720,-4599,-14169
934000,-416,-7300,14632,1705,-4663,-14289
936000,-300,-7272,14756,1755,-4726,-14410
938000,-320,-7340,14824,1749,-4863,-14562
940000,-324,-7316,15152,1783,-5017,-14709
942000,-404,-7340,15208,1822,-5207,-14902
944000,-324,-7376,15452,1924,-5379,-15023
946000,-228,-7468,15564,1980,-5600,-15274
948000,-320,-7492,15636,2058,-5872,-15459
950000,-260,-7508,15528,2172,-6096,-15659
952004,-232,-7612,15480,2251,-6275,-15927
954000,-296,-7612,15384,2300,-6456,-16180
956000,-288,-7596,15332,2329,-6685,-16395
958000,-280,-7648,15048,2417,-6788,-16653
960000,-264,-7520,14880,2391,-6880,-16939
962000,-208,-7576,14616,2416,-6861,-17212
964000,-144,-7560,14416,2371,-6836,-17442
966000,-40,-7532,14420,2364,-6680,-17678
968000,-20,-7552,14184,2307,-6554,-17883
970000,36,-7572,14056,2274,-6434,-18050
972000,156,-7632,14084,2188,-6231,-18222
974000,336,-7596,13952,2111,-6098,-18401
976000,372,-7688,14008,2050,-5911,-18487
978000,444,-7608,14192,1948,-5718,-18623
980004,492,-7620,14060,1884,-5641,-18664
982000,576,-7660,14136,1826,-5568,-18721
984000,624,-7616,14040,1737,-5502,-18765
986000,756,-7548,14212,1660,-5522,-18809
988000,912,-7508,14224,1627,-5519,-18876
990000,1060,-7488,14180,1543,-5546,-18877
992000,1136,-7420,14172,1524,-5631,-18892
994000,1144,-7420,14392,1515,-5673,-18904
996000,1304,-7376,14668,1477,-5894,-18897
998000,1272,-7356,14820,1473,-6136,-18886
1000000,1416,-7320,15096,1483,-6450,-18794
1002004,1460,-7396,15132,1524,-6744,-18795
1004000,1544,-7216,15452,1566,-7124,-18754
1006000,1740,-7180,15716,1582,-7640,-18735
1008000,1860,-7148,15788,1688,-8114,-18760
1010004,1948,-7024,15792,1748,-8572,-18700
1012000,2024,-7064,15896,1891,-9011,-18662
1014000,2016,-7008,15988,1994,-9448,-18622
1016000,2016,-6944,15768,2058,-9969,-18599
1018000,2096,-6896,15568,2141,-10415,-18543
1020000,2180,-6940,15436,2169,-10819,-18409
1022000,2104,-6884,15204,2206,-11216,-18379
1024000,2228,-6884,14956,2232,-11647,-18313
1026000,2312,-6852,14888,2191,-12004,-18220
1028004,2464,-6912,14656,2178,-12282,-18181
1030000,2616,-6808,14360,2137,-12429,-18096
1032004,2644,-6828,14304,2131,-12631,-18033
1034000,2700,-6872,14120,2062,-12702,-17921
1036000,2776,-6820,13972,1997,-12718,-17836
1038000,2872,-6760,13948,1939,-12679,-17703
1040000,2908,-6756,13868,1880,-12644,-17662
1042004,3024,-6760,13944,1805,-12566,-17567
1044000,3072,-6696,13884,1763,-12446,-17440
1046000,3200,-6552,13716,1696,-12326,-17329
1048000,3276,-6516,13824,1639,-12232,-17198
1050000,3360,-6424,13636,1572,-12184,-17075
1052000,3532,-6436,13816,1523,-12267,-17019
1054000,3596,-6452,13972,1467,-12390,-16884
1056000,3800,-6448,14088,1477,-12643,-16802
1058000,3980,-6456,14304,1479,-12797,-16679
1060000,4196,-6528,14404,1488,-13023,-16559
1062000,4360,-6556,14420,1512,-13228,-16477
1064004,4468,-6440,14628,1635,-13478,-16350
1066000,4592,-6300,14732,1687,-13816,-16202
1068000,4756,-6200,14828,1775,-14186,-16140
1070000,4816,-6168,14768,1896,-14564,-15975
1072000,4868,-6024,14552,1983,-14898,-15833
1074000,5000,-5848,14388,2106,-15174,-15692
1076000,5120,-5740,14088,2160,-15316,-15504
1078000,5156,-5704,13952,2255,-15374,-15277
1080000,5068,-5556,13888,2340,-15403,-15065
1082000,5076,-5452,13816,2468,-15362,-14825
1084000,5104,-5360,13748,2608,-15350,-14557
1086000,5216,-5404,13696,2725,-15277,-14292
1088000,5232,-5336,13612,2815,-15197,-14015
1090000,5392,-5380,13488,2944,-15013,-13744
1092000,5468,-5316,13460,3064,-14854,-13463
1094000,5652,-5288,13368,3157,-14587,-13176
1096000,5736,-5260,13376,3317,-14339,-12879
1098000,5728,-5228,13240,3369,-14150,-12542
1100000,5876,-5212,13288,3490,-13961,-12192
1102000,5944,-5216,13280,3645,-13724,-11833
1104000,6024,-5212,13272,3681,-13440,-11468
1106000,6212,-5120,13196,3791,-13125,-11089
1108004,6252,-5084,13304,3882,-12796,-10660
1110000,6276,-5128,13440,3987,-12505,-10280
1112004,6280,-5172,13516,4058,-12152,-9910
1114000,6320,-5260,13584,4208,-11850,-9476
1116000,6204,-5284,13588,4250,-11592,-9051
1118000,6284,-5268,13788,4313,-11346,-8640
1120000,6376,-5376,13736,4434,-11060,-8201
1122000,6452,-5416,13868,4508,-10874,-7784
1124000,6592,-5492,14040,4617,-10701,-7393
1126000,6636,-5516,14268,4718,-10651,-6946
1128000,6648,-5420,14364,4885,-10747,-6504
1130004,6776,-5312,14372,5065,-10886,-6145
1132000,6792,-5368,14412,5207,-11033,-5711
1134000,6828,-5176,14484,5410,-11245,-5277
1136000,6808,-5164,14300,5609,-11484,-4855
1138000,6784,-5080,14324,5823,-11715,-4411
1140000,6780,-4964,14204,6025,-11967,-3944
1142000,6672,-4892,14280,6278,-12254,-3516
1144000,6536,-4808,14212,6497,-12568,-3089
1146000,6512,-4684,13964,6714,-12764,-2620
1148000,6596,-4676,14244,6961,-12984,-2161
1150000,6664,-4696,14108,7187,-13120,-1721
1152000,6704,-4748,14108,7390,-13135,-1289
1154000,6724,-4860,14064,7550,-13161,-851
1156000,6776,-4880,14092,7754,-13040,-467
1158000,6816,-4948,13992,7981,-12876,-51
1160004,6944,-5128,13972,8166,-12685,360
1162000,7052,-5140,14064,8266,-12441,766
1164000,7216,-5216,13916,8413,-12215,1179
1166000,7400,-5256,14100,8551,-11884,1545
1168000,7540,-5272,13928,8634,-11537,1870
1170004,7772,-5304,13956,8737,-11247,2214
1172000,7800,-5256,14056,8811,-11038,2548
1174000,7812,-5212,13932,8845,-10900,2893
1176000,7944,-5164,13868,8927,-10772,3239
1178000,8104,-5108,13808,8953,-10682,3542
1180000,8288,-5064,13784,9000,-10649,3862
1182000,8368,-5016,13760,9042,-10688,4153
1184000,8500,-4924,13832,9103,-10737,4461
1186000,8528,-4864,13680,9133,-10789,4772
1188000,8496,-4816,13784,9212,-10913,5107
1190000,8596,-4768,13628,9288,-11009,5444
1192000,8636,-4660,13596,9374,-11111,5806
1194000,8680,-4572,13592,9472,-11141,6148
1196000,8872,-4556,13564,9583,-11222,6466
1198000,8964,-4420,13600,9732,-11226,6832
1200000,9048,-4276,13636,9865,-11259,7095
1202000,9060,-4268,13632,10076,-11192,7423
1204000,8996,-4200,13512,10220,-11159,7738
1206000,8984,-4136,13572,10426,-11071,8051
1208000,8892,-4132,13324,10616,-11011,8346
1210000,9020,-4116,13496,10794,-10946,8654
1212000,9096,-4052,13492,11004,-10874,8910
1214000,9368,-4120,13720,11296,-10874,9086
1216000,9556,-4168,14640,11587,-11097,9171
1218000,9292,-4012,13884,11908,-11237,9328
1220000,9208,-4056,13788,12179,-11228,9451
1222000,8620,-4152,13808,12442,-11422,9592
1224000,8328,-4200,13844,12787,-11578,9707
1226000,8312,-4284,14004,13041,-11804,9824
1228004,8068,-4364,13960,13290,-12142,9875
1230000,8044,-4484,14144,13550,-12455,9894
1232000,8008,-4524,14264,13852,-12762,9853
1234000,8020,-4540,14228,14135,-12976,9859
1236000,8056,-4468,14140,14355,-13174,9813
1238000,8128,-4456,14376,14607,-13392,9725
1240000,8108,-4460,14644,14863,-13612,9650
1242000,8036,-4360,14520,15095,-13847,9640
1244000,8044,-4216,14372,15334,-14026,9550
1246000,8112,-4124,14268,15525,-14164,9531
1248000,8040,-4052,14172,15726,-14197,9516
1250000,8160,-3912,14112,15971,-14185,9587
1252000,8080,-3932,14016,16192,-14222,9640
1254000,8220,-3908,13728,16391,-14148,9741
1256000,8260,-3960,13628,16599,-14037,9900
1258000,8256,-3904,13360,16743,-13881,10083
1260000,8220,-3804,13232,16907,-13697,10307
1262000,8396,-3944,13324,17030,-13658,10517
1264000,8556,-3928,13388,17144,-13563,10763
1266000,8768,-3924,13100,17297,-13427,11060
1268000,9040,-4000,13236,17387,-13317,11302
1270000,9064,-4016,13128,17457,-13250,11539
1272000,9216,-4048,12972,17557,-13064,11827
1274000,9356,-4096,12984,17573,-12913,12060
1276000,9444,-3932,12924,17622,-12773,12337
1278000,9468,-3892,12884,17687,-12602,12616
1280000,9580,-3944,12900,17727,-12404,12860
1282000,9632,-4016,12444,17730,-12146,13242
1284000,9832,-4008,12108,17758,-11717,13527
1286000,9900,-3928,12152,17817,-11335,13851
1288004,9852,-3924,11932,17804,-10947,14186
1290000,9876,-3776,11996,17791,-10640,14507
1292000,9792,-3804,11684,17829,-10241,14850
1294000,9872,-3668,11660,17858,-9771,15201
1296000,9892,-3576,11516,17879,-9488,15461
1298004,10120,-3464,11592,17853,-9229,15743
1300000,10204,-3468,11440,17879,-8896,15946
1302000,10196,-3356,11496,17895,-8574,16018
1304000,10156,-3280,11548,17912,-8294,16191
1306000,10092,-3276,11632,17965,-8017,16296
1308000,10080,-3216,11724,17971,-7797,16356
1310000,10040,-3172,11912,17999,-7583,16414
1312000,10024,-3208,11996,18026,-7396,16390
1314000,10024,-3220,12244,18042,-7228,16419
1316000,9916,-3236,12284,18065,-7062,16428
1318000,9992,-3292,12444,18037,-6865,16449
1320004,9916,-3384,12504,18006,-6689,16429
1322000,9888,-3476,12652,18044,-6455,16421
1324000,9816,-3528,12812,18031,-6279,16397
1326000,9764,-3552,13004,17992,-6123,16398
1328000,9760,-3556,12976,17999,-5942,16428
1330000,9744,-3596,13160,17997,-5733,16442
1332000,9680,-3556,13124,17963,-5564,16474
1334000,9752,-3448,13320,17987,-5348,16466
1336000,9712,-3432,13164,17943,-5179,16524
1338000,9696,-3364,13124,17939,-4994,16587
1340000,9608,-3316,13260,17938,-4885,16657
1342000,9520,-3264,13236,18001,-4814,16691
1344000,9448,-3236,13280,17995,-4817,16719
1346000,9416,-3264,13296,18033,-4862,16794
1348000,9464,-3260,13328,18079,-4879,16745
1350000,9452,-3260,13416,18122,-4901,16779
1352000,9424,-3160,13540,18222,-5023,16787
1354000,9400,-3104,13508,18265,-5158,16758
1356000,9280,-3052,13464,18383,-5336,16762
1358000,9224,-2976,13588,18450,-5464,16806
1360000,9132,-2904,13560,18547,-5644,16847
1362000,9168,-2904,13540,18607,-5709,16916
1364000,9232,-2788,13332,18765,-5730,16986
1366004,9248,-2860,13320,18809,-5775,17051
1368000,9404,-2920,13344,18927,-5775,17098
1370000,9440,-3032,13464,19008,-5741,17203
1372000,9480,-2964,13256,19092,-5794,17247
1374000,9672,-2996,13268,19210,-5711,17362
1376000,9772,-2972,13036,19270,-5590,17458
1378000,9928,-2968,12920,19383,-5507,17546
1380000,10172,-2944,12632,19468,-5325,17668
1382000,10208,-2824,12400,19614,-5112,17823
1384000,10352,-2748,12288,19689,-4951,17892
1386000,10504,-2676,12136,19752,-4773,17981
1388000,10392,-2652,12012,19850,-4578,18126
1390000,10484,-2672,11940,19878,-4458,18172
1392000,10468,-2576,11884,20006,-4278,18202
1394000,10476,-2624,11892,20078,-4187,18312
1396000,10480,-2620,11924,20141,-4066,18285
1398000,10420,-2664,11776,20214,-3980,18315
1400000,10376,-2636,11712,20287,-3875,18278
1402000,10280,-2552,11852,20299,-3769,18257
1404000,10236,-2560,11860,20364,-3631,18229
1406000,10168,-2580,11940,20393,-3489,18215
1408000,10092,-2652,11924,20477,-3367,18122
1410000,10080,-2604,12108,20497,-3211,18017
1412004,10060,-2460,12260,20470,-3073,17992
1414000,10012,-2388,12396,20577,-2926,17884
1416004,10040,-2236,12400,20546,-2819,17781
1418000,10072,-2248,12392,20525,-2668,17691
1420000,10000,-2116,12368,20589,-2547,17615
1422000,9992,-2092,12404,20542,-2409,17532
1424000,9836,-1880,12536,20563,-2294,17397
1426004,9724,-1732,12760,20538,-2281,17323
1428000,9532,-1648,12824,20461,-2256,17287
1430000,9324,-1524,13028,20434,-2331,17210
1432000,9216,-1516,13052,20378,-2417,17203
1434000,9004,-1264,13144,20337,-2533,17166
1436000,8808,-1128,13296,20349,-2750,17121
1438000,8896,-1052,13580,20297,-3011,17057
1440000,8876,-1068,13760,20273,-3287,16974
1442000,8880,-972,13884,20279,-3587,16903
1444000,8856,-1000,14216,20225,-3970,16817
1446000,8800,-1100,14264,20155,-4300,16719
1448000,8716,-1108,14204,20080,-4526,16692
1450000,8684,-1208,14172,19991,-4782,16634
1452000,8720,-1356,14372,19872,-4957,16550
1454000,8784,-1436,14260,19739,-5203,16521
1456000,8840,-1496,14300,19652,-5355,16533
1458000,8936,-1492,14120,19513,-5427,16514
1460000,8940,-1448,14132,19425,-5448,16586
1462000,9096,-1444,13924,19293,-5407,16541
1464000,9164,-1512,13676,19230,-5267,16632
1466000,9224,-1508,13784,19168,-5114,16700
1468000,9376,-1416,13644,19058,-4891,16764
1470000,9620,-1452,13464,19025,-4692,16850
1472000,9676,-1564,13264,18963,-4461,16962
1474000,9868,-1624,12972,18930,-4209,17024
1476000,10000,-1720,12776,18834,-3932,17131
1478000,10096,-1744,12260,18813,-3663,17244
1480000,10276,-1980,12312,18756,-3388,17323
1482000,10316,-2036,12048,18750,-3134,17309
1484000,10408,-1964,11808,18718,-2902,17414
1486000,10536,-1996,11744,18712,-2685,17436
1488000,10524,-1984,11732,18681,-2529,17402
1490000,10640,-1976,11680,18667,-2433,17324
1492000,10588,-1776,11624,18753,-2308,17291
1494000,10676,-1560,11616,18723,-2242,17219
1496000,10524,-1464,11576,18729,-2173,17100
1498000,10520,-1240,11392,18738,-2043,17006
1500000,10400,-1096,11544,18754,-2018,16911
1502000,10304,-908,11516,18741,-1946,16782
1504000,10248,-864,11616,18725,-1870,16641
1506000,10084,-724,11560,18774,-1750,16535
1508000,10120,-672,11644,18752,-1671,16410
1510000,10180,-604,11768,18706,-1589,16264
1512000,10392,-576,11976,18734,-1573,16104
1514004,10588,-580,11924,18684,-1519,15958
1516000,10652,-560,11956,18713,-1391,15786
1518000,10612,-476,11984,18696,-1301,15685
1520000,10580,-556,11792,18637,-1069,15546
1522000,10512,-544,11688,18583,-854,15470
1524000,10412,-588,11540,18544,-637,15443
1526000,10448,-540,11568,18472,-419,15394
1528000,10292,-648,11856,18457,-106,15420
1530000,10376,-608,11960,18446,64,15442
1532000,10384,-608,12116,18383,377,15451
1534000,10212,-584,12252,18342,612,15521
1536000,10092,-488,12488,18375,796,15549
1538000,10124,-536,12516,18381,1063,15572
1540000,9948,-560,12704,18391,1209,15579
1542000,9844,-572,12844,18409,1336,15647
1544004,9892,-608,12932,18358,1377,15680
1546000,9864,-636,13040,18376,1412,15710
1548000,9788,-576,12944,18384,1367,15813
1550000,9868,-608,12928,18374,1329,15849
1552000,9788,-580,12920,18346,1284,15911
1554000,9748,-568,13000,18352,1147,16009
1556000,9648,-480,12908,18311,1033,16136
1558000,9604,-396,12800,18306,900,16183
1560000,9656,-368,12748,18326,815,16302
1562000,9764,-392,12648,18310,764,16426
1564000,9800,-316,12584,18314,810,16465
1566000,9848,-292,12464,18267,812,16575
1568000,9876,-304,12456,18318,894,16688
1570000,10056,-264,12264,18253,944,16796
1572000,10220,-248,12272,18199,1063,16882
1574000,10248,-276,12176,18200,1168,16963
1576000,10432,-264,12176,18080,1313,17047
1578000,10536,-372,12084,18063,1464,17107
1580000,10472,-248,12128,17955,1582,17230
1582000,10624,-208,12036,17848,1784,17336
1584000,10672,-296,12000,17732,2019,17451
1586000,10540,-296,11860,17647,2314,17611
1588000,10608,-296,11880,17521,2621,17720
1590000,10540,-208,11868,17431,2854,17857
1592000,10516,-48,12028,17324,3031,17969
1594000,10520,40,12048,17258,3252,18086
1596000,10508,124,12056,17158,3531,18183
1598000,10444,208,11892,17097,3791,18264
1600000,10472,292,11808,17006,4107,18330
1602000,10380,292,11704,16916,4496,18352
1604000,10268,460,11876,16873,4777,18420
1606000,10272,616,11940,16752,5063,18426
1608000,10296,600,12100,16699,5312,18421
1610000,10104,564,11992,16591,5675,18393
1612004,9980,532,11888,16504,6073,18317
1614004,9832,592,12028,16415,6388,18232
1616000,9628,576,12156,16319,6779,18120
1618000,9448,412,12160,16250,7123,17993
1620004,9228,364,12316,16156,7495,17824
1622000,9020,148,12584,16027,7720,17647
1624000,8908,284,12548,15961,7985,17449
1626000,8704,232,12784,15880,8118,17295
1628000,8452,188,12868,15787,8201,17109
1630000,8388,120,12844,15744,8279,16948
1632000,8484,128,12920,15690,8435,16762
1634000,8352,188,13236,15684,8451,16623
1636000,8396,228,13256,15643,8456,16497
1638000,8468,212,13364,15609,8460,16387
1640000,8416,104,13492,15575,8390,16315
1642000,8392,268,13472,15594,8298,16203
1644000,8204,328,13496,15500,8177,16215
1646000,8196,232,13588,15488,7985,16220
1648000,8312,232,13476,15469,7796,16211
1650000,8452,392,13592,15476,7640,16233
1652000,8480,320,13360,15404,7502,16251
1654000,8508,416,13440,15439,7312,16293
1656000,8404,396,13404,15392,7146,16297
1658000,8508,360,13236,15390,7132,16411
1660000,8588,272,13324,15342,7022,16470
1662000,8540,256,13408,15319,6905,16533
1664000,8532,132,13364,15291,6894,16573
1666000,8700,164,13120,15277,6903,16648
1668004,8732,144,13236,15249,6981,16652
1670000,8784,136,13152,15181,7072,16746
1672004,8888,20,13060,15115,7274,16761
1674000,9000,-20,12848,15047,7587,16726
1676000,8960,-32,12772,15033,7910,16753
1678000,8956,-44,12608,14938,8283,16735
1680000,8900,-32,12528,14880,8753,16725
1682004,8916,60,12428,14807,9378,16658
1684000,8804,36,12588,14802,9923,16619
1686000,8716,92,12532,14745,10558,16573
1688000,8616,240,12476,14707,11286,16543
1690000,8168,256,12816,14651,11789,16481
1692000,8240,240,12384,14641,12632,16428
1694000,8296,232,12536,14608,13638,16331
1696000,7928,296,12984,14612,14353,16249
1698000,7836,464,13040,14524,15079,16216
1700004,7792,536,12856,14461,15864,16112
1702000,7544,556,13188,14435,16669,16001
1704000,7220,628,13308,14397,17336,15893
1706000,7096,668,13356,14313,17917,15799
1708000,7056,656,13284,14250,18668,15654
1710000,7164,660,13484,14143,19293,15535
1712000,6996,660,14028,14025,19748,15397
1714000,7024,704,14144,13951,20101,15185
1716000,7052,692,14320,13787,20393,15000
1718000,7044,700,14484,13673,20643,14822
1720000,6972,756,14804,13500,20793,14602
1722000,6876,800,15012,13322,20777,14465
1724000,6708,780,15272,13148,20575,14294
1726000,6732,816,15220,12900,20335,14088
1728000,6700,932,15412,12741,19970,13957
1730000,6548,948,15480,12467,19429,13793
1732000,6280,1116,15620,12237,18653,13650
1734000,6252,1024,15644,11970,17736,13501
1736000,6228,996,15528,11725,16671,13405
1738000,6168,952,15536,11419,15453,13356
1740000,6224,988,15512,11169,14144,13229
1742000,6304,912,15424,10904,12832,13116
1744000,6528,932,15344,10674,11578,13026
1746000,6720,948,15312,10488,10292,12898
1748004,6812,904,15460,10284,9010,12802
1750000,6860,920,15912,10115,7725,12687
1752000,6880,844,15888,10074,6465,12579
1754000,6920,848,15748,9971,5275,12507
1756000,6920,828,15784,9902,4325,12437
1758000,6776,760,15656,9878,3500,12396
1760000,6616,652,15324,9854,2784,12372
1762000,6480,672,15028,9810,2377,12329
1764000,6360,548,14852,9831,2160,12348
1766000,6124,556,14748,9848,2121,12397
1768000,5932,612,14740,9897,2123,12368
1770000,5764,576,14764,9920,2236,12378
1772000,5692,576,14780,9955,2413,12366
1774000,5648,580,14732,10056,2711,12375
1776000,5628,616,14968,10059,3095,12374
1778000,5688,664,14900,10164,3454,12346
1780000,5652,808,14812,10215,3911,12273
1782000,5640,784,14880,10227,4420,12249
1784000,5556,932,14844,10194,4823,12175
1786000,5476,976,14820,10186,5214,12137
1788000,5364,1116,14764,10125,5552,12129
1790000,5564,1156,14700,10057,5888,12032
1792000,5688,1196,14812,10047,6316,11943
1794000,5692,1312,14872,9979,6682,11814
1796000,5740,1404,14828,9881,6982,11707
1798000,5680,1644,14724,9802,7340,11595
1800004,5556,1748,14628,9685,7661,11525
1802000,5460,1880,14668,9587,7925,11437
1804000,5380,2100,14580,9465,8203,11316
1806000,5292,2284,14472,9340,8467,11308
1808004,5240,2408,14548,9225,8753,11232
1810000,5228,2644,14468,9073,9071,11141
1812000,5056,2792,14336,8975,9405,11108
1814000,4944,3096,14344,8867,9791,11093
1816000,4780,3204,14140,8737,10232,11088
1818000,4704,3288,14144,8597,10638,11130
1820000,4692,3452,14144,8576,11035,11119
1822000,4696,3460,14320,8500,11467,11133
1824000,4640,3428,14400,8434,11739,11200
1826000,4776,3280,14520,8378,12003,11156
1828000,4924,3124,14616,8374,12212,11100
1830000,5092,2868,14636,8301,12424,11019
1832000,5132,2728,14856,8287,12483,10896
1834000,5168,2484,14976,8243,12524,10761
1836000,5224,2260,15104,8289,12554,10513
1838000,5184,2096,15128,8220,12556,10373
1840000,5100,1856,15232,8302,12546,10172
1842000,4940,1664,15284,8299,12437,9934
1844000,4888,1444,15168,8260,12338,9746
1846000,4896,1312,15248,8216,12217,9501
1848000,4744,1176,15116,8222,12009,9241
1850000,4776,1088,15056,8175,11883,9017
1852000,4612,988,15216,8150,11616,8785
1854000,4528,1040,15056,8114,11385,8503
1856000,4540,1000,15072,8099,11187,8298
1858000,4420,1040,15120,8081,10955,8014
1860000,4372,1064,15128,8051,10651,7743
1862000,4468,1128,15052,8079,10505,7487
1864000,4396,1188,15052,8042,10276,7157
1866000,4364,1324,14972,8001,10065,6917
1868000,4296,1400,15056,8041,9824,6658
1870000,4328,1512,15064,8084,9669,6353
1872000,4168,1556,15000,8098,9660,6118
1874000,4244,1528,14964,8131,9593,5850
1876004,4176,1664,15024,8149,9545,5517
1878000,4248,1836,15004,8152,9533,5242
1880000,4140,1936,14904,8184,9668,4963
1882000,4152,1956,14868,8179,9786,4620
1884000,4080,2116,14732,8128,9982,4311
1886000,4056,2188,14668,8145,10229,3969
1888000,3900,2356,14572,8113,10666,3662
1890000,3924,2512,14584,8078,11046,3316
1892000,3800,2688,14500,8015,11561,3004
1894000,3788,2796,14228,7915,12145,2654
1896000,3692,2916,14300,7902,12745,2325
1898000,3640,3032,14144,7770,13395,1999
1900000,3700,3076,14032,7677,14008,1625
1902000,3660,3088,14044,7577,14689,1295
1904000,3516,3356,13984,7422,15419,890
1906000,3516,3524,13556,7334,16367,582
1908000,3196,3448,14148,7121,17169,226
1910000,3148,3212,14916,6822,17652,-241
1912000,3160,3116,14724,6464,18283,-633
1914000,3108,2976,14728,6028,19023,-1103
1916000,2932,3012,14768,5612,19681,-1525
1918000,2936,2844,14736,5192,20344,-2023
1920000,2804,2876,14808,4726,21064,-2472
1922000,2660,2700,14848,4328,21690,-3001
1924000,2404,2656,15392,3901,22103,-3453
1926000,2124,2480,15684,3555,22467,-3987
1928004,1984,2328,16016,3174,22708,-4568
1930000,1884,2280,16172,2881,22878,-5063
1932000,1776,2196,16540,2663,22967,-5670
1934000,1552,2180,16896,2565,22962,-6245
1936000,1384,2168,17316,2520,22682,-6806
1938004,1232,2224,17644,2596,22222,-7407
1940000,1076,2332,17768,2746,21713,-7868
1942000,732,2596,17764,2987,21197,-8395
1944000,528,2644,17708,3236,20635,-8808
1946000,88,2744,17652,3493,19949,-9215
1948000,36,2756,17608,3726,19122,-9546
1950000,20,2868,17420,3960,18307,-9929
1952000,-148,2908,17368,4134,17421,-10260
1954000,-316,3004,17264,4314,16509,-10604
1956000,-400,3028,17100,4478,15597,-10887
1958000,-444,3144,16924,4580,14792,-11207
1960004,-524,3204,16908,4614,13976,-11435
1962000,-676,3340,17204,4601,13054,-11634
1964000,-692,3428,17164,4609,12183,-11846
1966000,-688,3568,17244,4539,11435,-12020
1968000,-876,3724,16704,4413,10908,-12173
1970000,-1036,3748,16540,4284,10593,-12206
1972000,-1240,3900,16580,4174,10365,-12294
1974000,-1464,4040,16324,4075,10238,-12323
1976000,-1456,4152,16188,4046,10216,-12338
1978000,-1568,4236,16252,4074,10331,-12395
1980000,-1596,4292,15932,4125,10378,-12485
1982000,-1484,4220,15836,4227,10685,-12569
1984000,-1604,4224,15868,4374,10886,-12712
1986000,-1612,4176,15620,4520,11195,-12878
1988000,-1604,4096,15672,4731,11502,-13036
1990000,-1524,4056,15696,4926,11744,-13290
1992000,-1652,4008,15696,5180,12026,-13483
1994000,-1584,3888,15504,5400,12301,-13752
1996000,-1668,3788,15768,5673,12499,-14034
1998000,-1772,3764,15732,5913,12713,-14300
2000000,-1916,3580,15684,6121,12822,-14604
2002000,-1792,3512,15904,6296,12770,-14869
2004004,-1872,3388,15772,6492,12735,-15136
2006000,-1968,3304,15684,6684,12710,-15432
2008000,-2008,3252,15564,6883,12683,-15697
2010000,-2076,3184,15496,7105,12618,-15978
2012000,-2028,3220,15560,7349,12566,-16195
2014000,-2184,3216,15680,7478,12488,-16412
2016000,-2156,3076,15812,7621,12357,-16630
2018000,-2156,2904,15752,7813,12360,-16865
2020000,-2228,2820,15976,7980,12236,-16977
2022000,-2192,2784,16072,8077,12082,-17168
2024000,-2036,2836,16044,8233,11998,-17283
2026000,-1988,2664,16172,8374,11928,-17408
2028000,-2028,2604,16420,8457,11868,-17534
2030000,-1960,2456,16476,8552,11787,-17614
2032000,-2156,2440,16664,8656,11552,-17698
2034000,-2076,2368,16564,8721,11288,-17741
2036000,-2104,2280,16612,8793,10982,-17774
2038000,-2036,2288,16712,8825,10692,-17820
2040000,-2068,2256,16760,8914,10345,-17883
2042000,-2120,2240,16800,9019,9919,-17892
2044000,-2064,2276,17056,9100,9424,-17905
2046000,-2180,2252,17104,9174,8791,-17808
2048000,-2132,2376,17160,9282,8137,-17848
2050000,-2208,2524,17324,9294,7414,-17781
2052004,-2248,2640,17280,9435,6734,-17716
2054000,-2080,2652,17004,9555,6114,-17643
2056004,-2356,2916,17212,9615,5568,-17556
2058000,-2308,2876,17092,9728,4961,-17424
2060000,-2480,3040,17308,9857,4407,-17294
2062000,-2380,3152,17112,9940,3860,-17199
2064000,-2500,3200,17080,10012,3407,-17032
2066004,-2352,3280,16764,10088,2957,-16931
2068000,-2600,3240,16888,10226,2670,-16936
2070000,-2552,3432,16600,10312,2355,-16819
2072000,-2644,3564,16496,10320,2235,-16795
2074000,-2804,3636,16488,10399,1961,-16749
2076000,-2708,3684,16372,10437,1833,-16687
2078000,-2832,3708,16392,10481,1656,-16691
2080000,-2904,3900,16280,10531,1542,-16683
2082000,-2832,3864,16308,10521,1438,-16710
2084000,-2760,3788,16168,10519,1412,-16788
2086000,-3080,3896,16480,10540,1193,-16747
2088004,-3072,3892,16272,10546,1011,-16750
2090000,-3176,3968,16272,10542,920,-16846
2092000,-3144,3932,16320,10530,828,-16885
2094000,-3284,3848,16156,10491,694,-16967
2096000,-3456,3920,16340,10474,644,-17045
2098000,-3656,3956,16404,10492,423,-17088
2100000,-3672,3908,16380,10451,318,-17187
2102000,-3888,4032,16608,10464,179,-17195
2104000,-3996,3988,16448,10430,149,-17266
2106000,-4072,4056,16384,10409,-10,-17348
2108000,-4032,3992,16216,10335,0,-17360
2110000,-4232,4048,16468,10316,-90,-17380
2112000,-4168,4020,16036,10257,45,-17459
2114000,-4360,4032,16052,10108,-29,-17406
2116000,-4440,3976,16072,10061,-37,-17436
2118000,-4432,3908,15844,9926,-21,-17405
2120000,-4560,3972,16088,9827,-8,-17383
2122000,-4440,3960,15792,9647,90,-17386
2124000,-4512,4012,15920,9520,69,-17333
2126000,-4620,4032,15984,9440,-7,-17361
2128000,-4536,3948,15836,9275,-28,-17320
2130000,-4728,3932,15892,9180,-159,-17323
2132004,-4924,3788,15876,9075,-239,-17288
2134000,-4996,3764,15956,8911,-296,-17271
2136004,-5020,3708,15792,8825,-415,-17278
2138000,-5244,3576,16132,8696,-554,-17282
2140000,-5352,3612,16076,8617,-752,-17282
2142000,-5504,3648,16284,8509,-986,-17266
2144000,-5648,3736,16288,8471,-1194,-17228
2146000,-5808,3804,16416,8397,-1463,-17210
2148000,-6024,3948,16412,8336,-1649,-17185
2150000,-6112,4112,16516,8346,-1913,-17150
2152000,-6200,4204,16564,8306,-2226,-17067
2154000,-6288,4444,16620,8307,-2661,-17002
2156000,-6284,4464,16228,8328,-2858,-16938
2158000,-6644,4696,16636,8300,-3224,-16812
2160000,-6608,4832,16488,8330,-3530,-16769
2162000,-6624,4944,16280,8350,-3872,-16670
2164000,-6716,5000,16156,8296,-4153,-16555
2166000,-6704,5092,15988,8389,-4295,-16414
2168000,-6828,5324,16048,8386,-4485,-16315
2170000,-6784,5424,15904,8399,-4605,-16168
2172004,-6780,5672,15744,8361,-4671,-16017
2174000,-6736,5780,15580,8396,-4707,-15921
2176000,-6740,5932,15480,8356,-4744,-15764
2178000,-6776,6064,15292,8319,-4678,-15653
2180004,-6736,6212,15164,8287,-4567,-15559
2182000,-6644,6400,14948,8247,-4394,-15404
2184004,-6640,6500,14764,8186,-4153,-15307
2186000,-6652,6592,14580,8131,-3882,-15196
2188000,-6616,6576,14468,7994,-3633,-15127
2190000,-6576,6768,14272,7960,-3331,-15058
2192000,-6580,6936,14244,7876,-3037,-14984
2194004,-6556,7116,14248,7835,-2758,-14985
2196000,-6492,7220,14296,7783,-2503,-14898
2198000,-6572,7360,14300,7690,-2233,-14924
2200000,-6572,7492,14232,7631,-1948,-14933
2202000,-6432,7464,14196,7580,-1650,-14929
2204000,-6516,7504,14340,7486,-1405,-14997
2206000,-6488,7480,14296,7430,-1154,-15051
2208000,-6440,7432,14492,7374,-878,-15118
2210000,-6432,7360,14516,7263,-690,-15208
2212000,-6708,7452,14716,7225,-540,-15332
2214000,-6984,7540,14920,7063,-429,-15523
2216004,-7276,7476,14956,6985,-267,-15834
2218000,-7732,7288,14916,6803,-91,-16184
2220000,-8020,7288,15100,6657,14,-16655
2222000,-8180,7212,15300,6487,38,-17145
2224000,-8248,7072,15124,6295,81,-17646
2226000,-8044,7120,15004,6150,139,-18199
2228000,-7796,7144,14840,6016,135,-18702
2230000,-7480,7108,14736,5884,144,-19157
2232000,-7224,7064,14688,5745,159,-19609
2234000,-7044,7124,14740,5633,83,-20003
2236000,-6988,7092,14892,5486,-41,-20321
2238000,-7044,6972,14940,5319,-269,-20734
2240004,-6928,7048,14900,5152,-511,-21058
2242000,-6960,7044,15020,5003,-799,-21400
2244000,-6892,6972,15028,4840,-1140,-21658
2246000,-6864,6948,15072,4683,-1484,-21954
2248000,-6836,6996,15156,4570,-1934,-22244
2250000,-6996,7000,15444,4463,-2490,-22416
2252004,-7020,7096,15688,4365,-2996,-22579
2254000,-7084,7176,15664,4339,-3540,-22741
2256000,-7248,7308,15752,4358,-4104,-22804
2258000,-7188,7456,15756,4297,-4669,-22866
2260004,-7316,7580,16020,4371,-5170,-22944
2262000,-7308,7800,15880,4401,-5649,-22972
2264000,-7408,7944,15924,4438,-6072,-22988
2266000,-7556,8016,15900,4508,-6554,-22948
2268004,-7660,8036,16132,4511,-7029,-22952
2270000,-7656,8136,16000,4496,-7477,-22882
2272000,-7668,8140,15728,4475,-7902,-22821
2274000,-7628,8304,15688,4409,-8184,-22742
2276000,-7644,8364,15500,4322,-8440,-22652
2278000,-7576,8472,15308,4251,-8695,-22540
2280000,-7592,8512,15296,4109,-8858,-22451
2282000,-7556,8704,15128,3960,-8984,-22338
2284000,-7548,8736,15016,3803,-9048,-22237
2286000,-7552,8872,14792,3660,-9154,-22150
2288000,-7568,8976,14516,3450,-9113,-22124
2290000,-7580,9020,14608,3294,-9031,-22085
2292000,-7564,9156,14648,3143,-9037,-22072
2294000,-7540,9208,14556,2923,-8967,-22078
2296000,-7556,9148,14496,2706,-8887,-22113
2298000,-7464,9112,14384,2459,-8785,-22160
2300000,-7356,8988,14400,2231,-8710,-22194
2302000,-7396,9016,14244,2008,-8548,-22239
2304000,-7364,8972,14288,1775,-8375,-22297
2306000,-7332,8788,14184,1555,-8249,-22372
2308000,-7224,8756,14216,1300,-8050,-22435
2310000,-7284,8768,14296,1091,-7821,-22547
2312000,-7248,8644,14340,812,-7668,-22611
2314000,-7316,8512,14496,556,-7487,-22699
2316000,-7284,8496,14352,279,-7278,-22809
2318000,-7220,8408,14516,2,-7154,-22918
2320000,-7164,8324,14460,-245,-6987,-23026
2322004,-7072,8276,14460,-554,-6833,-23072
2324000,-7024,8068,14528,-857,-6710,-23173
2326000,-6980,7916,14596,-1153,-6553,-23271
2328000,-6904,7840,14552,-1450,-6328,-23343
2330000,-6880,7672,14416,-1730,-6184,-23454
2332000,-6868,7580,14604,-1975,-6055,-23558
2334000,-6880,7460,14744,-2262,-5946,-23658
2336000,-6924,7300,14804,-2517,-5884,-23746
2338000,-7000,7232,15016,-2753,-5863,-23945
2340000,-6996,7184,14960,-2959,-5848,-24043
2342000,-6988,7152,15080,-3146,-5869,-24205
2344000,-7040,7012,15300,-3294,-5909,-24365
2346000,-7080,6912,15308,-3440,-6001,-24536
2348000,-7316,6788,15388,-3517,-6140,-24699
2350000,-7344,6784,15380,-3608,-6306,-24849
2352000,-7608,6720,15608,-3658,-6533,-25070
2354000,-7760,6780,15712,-3704,-6803,-25170
2356000,-7792,6708,15764,-3702,-7127,-25334
2358000,-7744,6736,15756,-3665,-7415,-25502
2360000,-7676,6716,15876,-3625,-7766,-25626
2362000,-7700,6652,15788,-3541,-8012,-25773
2364000,-7576,6700,15920,-3508,-8262,-25898
2366000,-7584,6608,15912,-3426,-8557,-26041
2368000,-7608,6560,15956,-3420,-8798,-26178
2370000,-7572,6632,15956,-3335,-9067,-26309
2372000,-7520,6640,16004,-3281,-9290,-26419
2374000,-7532,6636,16052,-3228,-9460,-26550
2376000,-7516,6624,15776,-3210,-9596,-26663
2378000,-7592,6576,15684,-3185,-9651,-26736
2380000,-7520,6620,15688,-3177,-9804,-26791
2382000,-7408,6528,15536,-3219,-9825,-26839
2384000,-7316,6672,15356,-3235,-9837,-26885
2386000,-7332,6720,15268,-3259,-9880,-26855
2388000,-7296,6740,15192,-3268,-9850,-26816
2390004,-7180,6732,15104,-3331,-9809,-26795
2392000,-7208,6744,15108,-3325,-9776,-26747
2394000,-7088,6772,15248,-3357,-9788,-26689
2396000,-6956,6772,15124,-3362,-9803,-26608
2398000,-6892,6800,15120,-3349,-9717,-26449
2400000,-6900,6876,15108,-3316,-9640,-26334
2402000,-6788,6776,15272,-3352,-9622,-26211
2404000,-6740,6776,15408,-3369,-9587,-26081
2406000,-6644,6672,15496,-3366,-9578,-25888
2408000,-6528,6720,15372,-3363,-9506,-25716
2410004,-6484,6592,15304,-3397,-9410,-25538
2412000,-6520,6600,15332,-3399,-9302,-25311
2414000,-6460,6596,15184,-3407,-9212,-25074
2416000,-6456,6480,15172,-3438,-9049,-24823
2418000,-6424,6476,15300,-3447,-8944,-24581
2420000,-6416,6400,15236,-3415,-8753,-24324
2422000,-6548,6348,15192,-3484,-8572,-24037
2424000,-6480,6328,15316,-3486,-8356,-23741
2426000,-6592,6296,15136,-3465,-8160,-23437
2428000,-6688,6204,15312,-3513,-7877,-23114
2430000,-6656,6212,15204,-3482,-7675,-22857
2432000,-6696,6188,15416,-3448,-7414,-22558
2434000,-6728,6176,15344,-3424,-7178,-22279
2436000,-6736,6104,15540,-3382,-6973,-21969
2438000,-6860,6100,15552,-3330,-6815,-21654
2440004,-6872,6056,15504,-3285,-6599,-21387
2442000,-6840,5984,15488,-3259,-6468,-21159
2444000,-6984,5916,15692,-3169,-6283,-20847
2446000,-7004,5896,15780,-3112,-6282,-20533
2448000,-7036,5828,15768,-3057,-6161,-20299
2450004,-7040,5708,15884,-2947,-6170,-20027
2452000,-7108,5644,15884,-2856,-6106,-19811
2454000,-7076,5560,15996,-2707,-6108,-19571
2456000,-7064,5472,16044,-2623,-6106,-19371
2458000,-7108,5404,16092,-2530,-6161,-19176
2460000,-7152,5284,16044,-2439,-6205,-18989
2462000,-7216,5116,16108,-2360,-6267,-18806
2464000,-7252,5164,16108,-2233,-6300,-18638
2466000,-7092,5076,16072,-2168,-6355,-18462
2468004,-7020,5156,16060,-2069,-6432,-18324
2470000,-6976,5084,16108,-1986,-6406,-18156
2472000,-6856,5092,16104,-1940,-6438,-18026
2474000,-6728,5076,16240,-1821,-6474,-17865
2476000,-6716,5144,16188,-1791,-6515,-17674
2478000,-6628,5108,16100,-1701,-6533,-17511
2480000,-6468,5104,16040,-1663,-6563,-17303
2482000,-6464,5064,15884,-1639,-6480,-17122
2484000,-6308,5068,15768,-1635,-6387,-16943
2486000,-6152,4976,15860,-1600,-6270,-16666
2488000,-6032,4936,15836,-1582,-6199,-16484
2490000,-5880,4852,15780,-1624,-6113,-16298
2492000,-5696,4776,15716,-1598,-6024,-16100
2494000,-5632,4724,15656,-1587,-5892,-15912
2496000,-5500,4640,15764,-1546,-5780,-15721
2498000,-5400,4604,15752,-1568,-5702,-15571
2500000,-5332,4556,15712,-1503,-5589,-15425
2502000,-5408,4476,15812,-1501,-5520,-15263
2504000,-5292,4360,15944,-1526,-5461,-15098
2506000,-5276,4332,15932,-1512,-5437,-14928
2508000,-5168,4308,15864,-1464,-5347,-14703
2510000,-5188,4148,15916,-1451,-5290,-14579
2512000,-5144,4204,15880,-1500,-5282,-14428
2514000,-5128,4020,15944,-1453,-5271,-14306
2516004,-5104,4052,15880,-1460,-5269,-14067
2518000,-5200,4012,15868,-1446,-5247,-13933
2520004,-5296,3992,15876,-1426,-5222,-13777
2522000,-5404,3940,15976,-1331,-5175,-13609
2524000,-5496,3916,15984,-1325,-5173,-13479
2526000,-5556,3888,15836,-1295,-5165,-13307
2528000,-5644,3892,16084,-1270,-5125,-13189
2530000,-5716,3896,16000,-1226,-5056,-13019
2532000,-5816,3920,16220,-1202,-5029,-12910
2534000,-5848,3888,16196,-1131,-5010,-12802
2536000,-5848,3860,16296,-1079,-4984,-12657
2538000,-5796,3820,16280,-995,-4930,-12521
2540000,-5840,3732,16372,-996,-4919,-12401
2542000,-5800,3652,16336,-984,-4900,-12273
2544000,-5692,3644,16572,-915,-4943,-12149
2546000,-5656,3472,16692,-928,-5067,-12041
2548000,-5600,3384,16748,-882,-5152,-11947
2550000,-5540,3288,16612,-910,-5240,-11867
2552000,-5528,3272,16640,-852,-5368,-11802
2554000,-5440,3116,16696,-837,-5486,-11722
2556000,-5412,3136,16564,-812,-5553,-11659
2558000,-5316,3080,16644,-776,-5652,-11662
2560000,-5360,3084,16716,-773,-5761,-11594
2562000,-5336,3076,16716,-687,-5882,-11608
2564004,-5360,3016,16852,-650,-5937,-11610
2566000,-5420,3044,16708,-609,-6033,-11599
2568004,-5384,3000,16696,-591,-6107,-11640
2570000,-5380,3036,16604,-522,-6159,-11675
2572000,-5364,2992,16616,-518,-6203,-11715
2574000,-5368,3028,16544,-506,-6199,-11831
2576004,-5408,3044,16412,-500,-6224,-11808
2578000,-5328,2928,16464,-502,-6247,-11909
2580000,-5528,3040,16536,-523,-6285,-11925
2582000,-5308,2976,16440,-510,-6253,-11970
2584000,-5108,2880,16544,-512,-6252,-12048
2586000,-5100,2824,16488,-583,-6265,-12141
2588000,-5140,3012,16740,-571,-6318,-12233
2590000,-5048,2776,16672,-598,-6349,-12316
2592000,-5028,2844,16828,-592,-6419,-12409
2594000,-5096,2820,16708,-618,-6509,-12511
2596000,-5092,2916,16612,-674,-6602,-12587
2598000,-4980,2956,16448,-723,-6617,-12677
2600000,-4980,2952,16584,-757,-6664,-12760
2602000,-4884,2924,16660,-796,-6675,-12792
2604000,-4884,2964,16644,-853,-6749,-12908
2606000,-4764,2948,16600,-952,-6795,-12992
2608004,-4760,2932,16664,-952,-6858,-13047
2610000,-4768,2948,16656,-1037,-6888,-13122
2612000,-4716,2932,16672,-1105,-6981,-13210
2614000,-4580,2928,16740,-1151,-7118,-13302
2616004,-4556,2916,16708,-1237,-7260,-13365
2618000,-4520,2992,16764,-1300,-7363,-13496
2620000,-4544,2976,16748,-1380,-7509,-13575
2622000,-4508,2968,16696,-1462,-7664,-13648
2624004,-4480,3012,16728,-1558,-7775,-13727
2626000,-4516,2932,16616,-1625,-7904,-13839
2628000,-4468,2956,16684,-1732,-7994,-13897
2630000,-4440,2864,16576,-1807,-8118,-13929
2632000,-4400,2896,16556,-1912,-8233,-14063
2634000,-4416,2876,16548,-2031,-8278,-14087
2636004,-4424,2852,16476,-2135,-8298,-14189
2638000,-4400,2812,16592,-2264,-8373,-14240
2640000,-4380,2752,16536,-2350,-8338,-14296
2642000,-4284,2756,16324,-2486,-8345,-14406
2644004,-4272,2620,16364,-2588,-8244,-14466
2646000,-4168,2636,16308,-2746,-8256,-14567
2648000,-4176,2576,16276,-2873,-8195,-14640
2650000,-4116,2524,16428,-2946,-8130,-14719
2652000,-4000,2496,16284,-3053,-8091,-14827
2654004,-4076,2436,16272,-3239,-8066,-14939
2656000,-4020,2396,16256,-3303,-8066,-15003
2658000,-4024,2400,16328,-3408,-8077,-15047
2660000,-3904,2364,16324,-3468,-8121,-15131
2662000,-3884,2328,16380,-3562,-8207,-15209
2664000,-3804,2376,16532,-3585,-8300,-15300
2666000,-3672,2360,16480,-3613,-8409,-15337
2668000,-3604,2300,16524,-3631,-8536,-15385
2670000,-3540,2240,16440,-3693,-8663,-15439
2672000,-3520,2296,16560,-3694,-8773,-15541
2674000,-3464,2264,16480,-3747,-8988,-15614
2676000,-3440,2224,16500,-3795,-9145,-15652
2678000,-3452,2200,16396,-3794,-9348,-15687
2680000,-3476,2192,16396,-3794,-9437,-15739
2682000,-3396,2112,16472,-3850,-9593,-15792
2684000,-3408,2032,16292,-3888,-9698,-15836
2686000,-3412,2068,16400,-3889,-9770,-15880
2688000,-3408,1992,16200,-3938,-9854,-15859
2690000,-3400,1948,16256,-3976,-9877,-15854
2692000,-3336,1864,16280,-4036,-9893,-15838
2694000,-3204,1824,16200,-4111,-9927,-15810
2696004,-3172,1624,16308,-4124,-9887,-15763
2698000,-3012,1596,16228,-4231,-9891,-15693
2700000,-2924,1544,16292,-4233,-9905,-15682
2702000,-2800,1452,16248,-4235,-9844,-15633
2704004,-2684,1352,16232,-4319,-9811,-15545
2706000,-2512,1200,16248,-4303,-9874,-15538
2708000,-2452,1084,16296,-4323,-9825,-15473
2710000,-2364,1020,16456,-4276,-9821,-15502
2712000,-2280,824,16520,-4299,-9936,-15385
2714000,-2272,640,16528,-4235,-10065,-15457
2716000,-2284,440,16496,-4169,-10211,-15566
2718000,-2284,348,16440,-4146,-10323,-15611
2720000,-2316,276,16460,-4124,-10493,-15745
2722000,-2312,276,16432,-4055,-10596,-15899
2724000,-2368,204,16300,-4013,-10703,-16060
2726000,-2328,220,16324,-4025,-10840,-16202
2728000,-2332,304,16192,-3982,-10940,-16366
2730000,-2280,400,16260,-3994,-11040,-16561
2732000,-2244,384,16228,-3988,-11124,-16750
2734000,-2244,448,16284,-3994,-11217,-16898
2736000,-2220,584,16176,-4015,-11177,-17064
2738000,-2156,640,16144,-4014,-11246,-17291
2740000,-2060,732,16220,-4062,-11239,-17470
2742000,-2016,752,16188,-4123,-11195,-17609
2744000,-1928,868,16244,-4186,-11151,-17754
2746000,-1932,864,16304,-4266,-11162,-17919
2748000,-1864,924,16320,-4299,-11099,-18000
2750000,-1796,964,16440,-4385,-11137,-18078
2752000,-1704,1028,16348,-4439,-11137,-18146
2754000,-1560,1068,16508,-4539,-11115,-18221
2756000,-1444,1152,16492,-4596,-11056,-18241
2758000,-1364,1200,16612,-4699,-11068,-18220
2760000,-1352,1220,16676,-4737,-11003,-18258
2762000,-1228,1188,16560,-4850,-11020,-18205
2764000,-1196,1224,16596,-4936,-10997,-18119
2766000,-1092,1208,16740,-4994,-11008,-18026
2768000,-952,1240,16672,-5159,-10961,-17969
2770000,-916,1204,16728,-5215,-10905,-17870
2772004,-824,1224,16636,-5318,-10832,-17732
2774000,-704,1196,16680,-5411,-10803,-17575
2776004,-616,1164,16712,-5529,-10743,-17473
2778000,-452,1124,16692,-5572,-10692,-17339
2780000,-384,1068,16628,-5706,-10617,-17177
2782000,-168,1128,16596,-5857,-10563,-16973
2784000,-128,1064,16652,-5931,-10473,-16876
2786000,40,1004,16548,-6020,-10343,-16702
2788000,136,964,16576,-6114,-10287,-16591
2790000,260,852,16720,-6210,-10180,-16433
2792000,336,920,16728,-6278,-10135,-16264
2794000,356,856,16784,-6337,-10132,-16166
2796000,552,760,17012,-6361,-10181,-16073
2798000,584,676,17064,-6368,-10192,-15987
2800000,612,516,17056,-6412,-10230,-15913
2802000,600,464,17108,-6416,-10326,-15900
2804000,496,368,17180,-6449,-10400,-15901
2806000,492,296,17260,-6416,-10530,-15946
2808000,448,260,17392,-6409,-10663,-15881
2810000,316,256,17416,-6349,-10826,-15861
2812000,348,220,17388,-6330,-10943,-15899
2814000,268,140,17420,-6339,-11096,-15868
2816000,336,112,17408,-6328,-11210,-15804
2818000,272,288,17288,-6302,-11284,-15787
2820004,528,104,17408,-6273,-11347,-15712
2822000,516,-24,17448,-6272,-11407,-15712
2824004,532,128,17308,-6241,-11455,-15662
2826000,640,212,17120,-6262,-11496,-15602
2828000,776,164,16976,-6290,-11518,-15515
2830000,924,248,17148,-6330,-11468,-15427
2832000,1128,260,17040,-6335,-11428,-15399
2834004,1272,284,16840,-6337,-11355,-15308
2836000,1348,324,16828,-6366,-11261,-15250
2838000,1428,312,16760,-6405,-11153,-15147
2840000,1580,344,16820,-6457,-11076,-15027
2842000,1604,368,16616,-6450,-10985,-14939
2844000,1760,396,16536,-6529,-10925,-14818
2846000,1904,384,16584,-6573,-10799,-14662
2848000,1972,404,16376,-6596,-10735,-14522
2850000,2160,452,16340,-6612,-10625,-14355
2852000,2228,532,16408,-6672,-10502,-14163
2854000,2280,496,16368,-6718,-10435,-14001
2856000,2296,420,16340,-6748,-10395,-13794
2858000,2412,360,16164,-6759,-10300,-13624
2860000,2524,416,16304,-6844,-10301,-13424
2862000,2652,324,16488,-6923,-10310,-13207
2864000,2708,244,16492,-6988,-10288,-12970
2866000,2804,220,16564,-7067,-10312,-12812
2868000,2892,132,16544,-7107,-10377,-12678
2870000,2896,20,16604,-7205,-10382,-12519
2872000,2924,12,16700,-7318,-10453,-12415
2874000,2916,-92,16592,-7401,-10495,-12349
2876000,2824,-184,16656,-7543,-10558,-12194
2878000,2860,-220,16608,-7661,-10572,-12056
2880000,3020,-364,16632,-7800,-10658,-11978
2882000,2952,-380,16620,-7929,-10704,-11848
2884000,3160,-404,16756,-8105,-10768,-11762
2886000,3208,-460,16728,-8232,-10785,-11595
2888000,3276,-432,16804,-8365,-10836,-11497
2890000,3376,-424,16912,-8445,-10813,-11417
2892000,3440,-492,16884,-8531,-10848,-11288
2894000,3560,-596,16804,-8617,-10903,-11218
2896000,3676,-636,16580,-8683,-10928,-11162
2898000,3740,-748,16700,-8682,-10853,-11031
2900004,3656,-772,16620,-8676,-10908,-10978
2902000,3716,-788,16360,-8637,-10928,-10849
2904000,3736,-876,16256,-8617,-11017,-10718
2906000,3692,-1044,15980,-8563,-11042,-10557
2908000,3700,-1024,15940,-8486,-11060,-10389
2910000,3616,-1020,15900,-8396,-11087,-10228
2912000,3660,-1120,15888,-8306,-11086,-10021
2914000,3676,-1188,15768,-8180,-11114,-9824
2916000,3704,-1176,15740,-8034,-11082,-9569
2918000,3660,-1248,15656,-7938,-11066,-9346
2920000,3724,-1184,15624,-7826,-11126,-9062
2922000,3780,-1196,15524,-7651,-11052,-8783
2924000,3860,-1176,15428,-7519,-11042,-8484
2926000,3916,-1224,15468,-7403,-10975,-8185
2928000,3884,-1204,15600,-7303,-10955,-7886
2930000,3884,-1264,15584,-7190,-10909,-7620
2932000,3896,-1348,15440,-7098,-10830,-7390
2934000,3848,-1524,15440,-7025,-10846,-7149
2936000,3864,-1556,15348,-6990,-10884,-6841
2938000,3928,-1636,15360,-6963,-10867,-6554
2940000,3968,-1740,15580,-6906,-10869,-6287
2942000,3996,-1756,15508,-6916,-10923,-6000
2944000,4180,-1768,15572,-6921,-11004,-5694
2946000,4168,-1716,15660,-6904,-11033,-5434
2948000,4252,-1696,15640,-6871,-11118,-5095
2950000,4312,-1688,15784,-6891,-11220,-4699
2952004,4448,-1684,15740,-6922,-11342,-4388
2954000,4480,-1640,15740,-6915,-11436,-3936
2956000,4548,-1588,15528,-6955,-11546,-3568
2958000,4620,-1564,15532,-6989,-11577,-3209
2960000,4696,-1524,15396,-6978,-11607,-2749
2962004,4736,-1532,15276,-6991,-11633,-2347
2964000,4844,-1496,15208,-6967,-11568,-1868
2966000,4672,-1528,15260,-6987,-11556,-1427
2968000,4788,-1540,15168,-6948,-11545,-974
2970000,4880,-1528,15084,-6932,-11458,-548
2972000,4976,-1484,15092,-6892,-11367,-136
2974000,5100,-1372,15164,-6840,-11293,339
2976000,5160,-1472,15056,-6797,-11189,790
2978000,5232,-1408,14988,-6747,-11130,1198
2980000,5292,-1384,15164,-6683,-11119,1558
2982000,5348,-1360,15108,-6622,-11081,1955
2984000,5564,-1412,14900,-6545,-11021,2326
2986000,5556,-1340,15036,-6493,-10952,2722
2988000,5528,-1380,15112,-6436,-10926,3067
2990000,5624,-1280,15012,-6368,-10922,3406
2992000,5712,-1320,15100,-6305,-10925,3739
2994000,5740,-1336,15120,-6189,-10997,4085
2996000,5704,-1348,15204,-6133,-11078,4430
2998000,5748,-1400,15076,-6062,-11145,4750
3000000,5736,-1348,15044,-5955,-11205,5054
3002000,5688,-1428,14828,-5912,-11175,5357
3004000,5688,-1500,14824,-5808,-11073,5608
3006000,5564,-1480,14636,-5702,-11004,5852
3008000,5492,-1584,14868,-5581,-10961,6158
3010000,5428,-1724,14544,-5424,-10872,6380
3012000,5308,-1820,14588,-5281,-10747,6584
3014000,5264,-1896,14636,-5089,-10738,6735
3016000,5176,-2040,14328,-4937,-10615,6987
3018000,5324,-2564,14356,-4744,-10472,7148
3020000,5544,-3400,14332,-4574,-10444,7174
3022000,5420,-3288,14280,-4377,-10366,7258
3024000,5376,-3436,14232,-4186,-10215,7358
3026000,5272,-3460,14228,-4007,-10178,7460
3028004,5264,-3548,14536,-3730,-10315,7582
3030000,5504,-3684,14432,-3552,-10453,7662
3032000,5568,-3700,14508,-3316,-10594,7798
3034000,5608,-3768,14684,-3104,-10869,7902
3036000,5752,-3776,14804,-2826,-11233,8071
3038000,5896,-3704,14852,-2610,-11570,8213
3040000,6004,-3592,14840,-2396,-11861,8349
3042004,6040,-3468,15020,-2177,-12154,8572
3044000,6040,-3260,14888,-1920,-12378,8769
3046000,5940,-3128,14896,-1713,-12582,8955
3048000,5928,-2968,14772,-1435,-12699,9247
3050004,5908,-2932,14676,-1160,-12775,9512
3052000,5792,-2828,14568,-874,-12916,9810
3054000,5788,-2848,14528,-571,-13009,10041
3056000,5940,-3016,14240,-303,-13055,10335
3058004,6008,-3076,14264,-54,-13003,10561
3060000,6160,-3188,14136,182,-13032,10772
3062000,6400,-3352,14380,360,-13098,11007
3064000,6756,-3512,13880,550,-12984,11149
3066000,6892,-3676,13796,685,-12837,11281
3068000,7140,-3724,13816,860,-12761,11463
3070000,7212,-3868,14248,950,-12730,11552
3072000,7400,-3908,14144,1049,-12737,11700
3074000,7320,-3932,14160,1132,-12655,11769
3076004,7444,-3964,14520,1191,-12795,11849
3078000,7644,-4096,14304,1274,-12825,11982
3080004,7620,-4084,13844,1332,-12565,12141
3082000,7556,-4092,13836,1381,-12446,12229
3084000,7604,-4072,14092,1470,-12432,12372
3086000,7648,-4216,14616,1479,-12481,12542
3088000,7844,-4204,14616,1545,-12622,12692
3090004,7952,-4192,14696,1511,-12746,12902
3092000,7916,-4188,14232,1561,-12644,13115
3094000,7816,-4168,14148,1571,-12559,13273
3096000,7912,-4220,14356,1572,-12526,13453
3098000,7984,-4076,14636,1550,-12628,13658
3100000,7800,-4156,14504,1550,-12664,13828
3102000,7652,-4192,14064,1562,-12537,13978
3104000,7528,-4240,14188,1603,-12522,14128
3106000,7500,-4244,14020,1538,-12441,14254
3108000,7456,-4120,14220,1557,-12401,14383
3110000,7604,-4008,14496,1548,-12452,14557
3112000,7628,-4004,14140,1538,-12329,14681
3114000,7560,-3928,14460,1513,-12385,14779
3116000,7700,-3712,14764,1533,-12452,14980
3118000,7676,-3496,14008,1487,-12215,15107
3120000,7580,-3404,14420,1530,-12151,15234
3122000,7580,-3224,14308,1520,-12112,15430
3124000,7336,-3132,13676,1544,-11838,15616
3126000,7272,-3028,13724,1549,-11615,15768
3128000,7216,-2916,13672,1594,-11437,15936
3130000,7272,-2840,13664,1568,-11245,16169
3132000,7256,-2740,13888,1639,-11242,16386
3134000,7020,-2716,13156,1713,-10782,16548
3136000,6880,-2728,12516,1772,-10277,16715
3138000,6700,-2732,12884,1841,-9925,16855
3140000,6808,-2700,13464,1919,-9789,17012
3142000,6960,-2596,13740,2004,-9662,17197
3144000,6620,-2212,13008,2064,-9317,17430
3146000,6584,-2172,13032,2143,-8999,17665
3148000,7020,-2616,13264,2224,-8766,17893
3150000,7108,-2680,13088,2223,-8464,18024
3152000,7016,-2524,12916,2272,-8128,18238
3154000,6980,-2832,13052,2324,-7920,18469
3156004,6872,-2976,13112,2373,-7712,18653
3158000,6852,-2952,12684,2358,-7440,18912
3160000,6832,-2976,12528,2377,-7116,19109
3162000,6752,-3192,12720,2392,-6921,19376
3164000,6808,-3288,13052,2399,-6790,19647
3166000,6948,-3316,12660,2421,-6519,19963
3168000,6984,-3396,12452,2364,-6160,20217
3170000,7028,-3456,12556,2383,-5842,20492
3172000,6976,-3688,12664,2324,-5584,20755
3174000,6964,-3648,12556,2286,-5301,21069
3176000,6936,-3768,12376,2282,-4947,21301
3178000,6936,-3800,12640,2205,-4731,21586
3180000,7180,-3940,12572,2152,-4458,21876
3182000,7116,-4000,12372,2056,-3999,22129
3184000,7208,-4048,12524,2047,-3660,22345
3186000,7248,-4120,12460,2018,-3334,22536
3188000,7284,-4216,12464,1933,-2836,22759
3190000,7400,-4276,12572,1850,-2397,22877
3192000,7492,-4220,12848,1834,-2043,22980
3194000,7664,-4232,12908,1723,-1629,23076
3196000,7676,-4244,12692,1659,-1113,23081
3198000,7824,-4224,13000,1620,-652,23109
3200000,7752,-4300,12900,1569,-126,23070
3202000,7956,-4188,12968,1501,362,23041
3204004,7860,-4228,12868,1383,894,23012
3206000,7792,-4052,13196,1340,1320,22930
3208004,7864,-4068,13344,1186,1639,22882
3210000,7800,-4076,13056,1153,2023,22809
3212000,7772,-3972,13072,1042,2378,22749
3214000,7720,-3924,13120,920,2709,22704
3216000,7580,-3964,13032,800,2997,22624
3218004,7420,-3952,12876,671,3361,22610
3220000,7200,-3892,13076,509,3602,22530
3222000,7232,-3680,13228,377,3686,22535
3224000,7264,-3560,13348,248,3745,22595
3226000,7248,-3524,13040,131,3882,22661
3228000,7140,-3344,13312,-29,3956,22711
3230000,7188,-3416,13284,-190,3950,22813
3232000,7248,-3416,13208,-317,3983,22873
3234000,7256,-3428,13244,-469,4009,23026
3236000,7280,-3412,13280,-617,3828,23101
3238000,7188,-3572,13448,-718,3751,23191
3240000,7248,-3716,13280,-859,3626,23291
3242000,7360,-3624,13500,-1043,3339,23390
3244000,7476,-3736,13632,-1155,3127,23545
3246000,7408,-3944,13484,-1245,2923,23614
3248000,7476,-3996,13516,-1398,2750,23747
3250000,7492,-4228,13480,-1494,2532,23863
3252000,7352,-4432,13224,-1616,2416,23995
3254000,7300,-4468,13548,-1744,2191,24054
3256000,7324,-4688,13604,-1831,1891,24186
3258000,7304,-4816,13468,-1919,1664,24274
3260000,7380,-4912,13396,-2008,1435,24431
3262000,7296,-5096,13160,-2115,1293,24517
3264000,7148,-5196,13192,-2230,1182,24623
3266000,7096,-5268,13256,-2337,1057,24710
3268000,7076,-5408,13156,-2439,997,24833
3270000,7028,-5488,13232,-2540,906,24940
3272000,6956,-5596,13196,-2656,770,25081
3274000,6736,-5680,13052,-2805,762,25206
3276000,6668,-5748,12800,-2896,827,25295
3278000,6600,-5776,12868,-3031,796,25462
3280000,6564,-5788,12492,-3154,863,25571
3282000,6452,-5876,12580,-3338,918,25729
3284004,6336,-5964,12564,-3404,975,25885
3286000,6288,-5940,12684,-3581,963,26079
3288000,6040,-6104,12296,-3706,1041,26207
3290000,6220,-6056,12540,-3860,1027,26387
3292000,6008,-6292,12364,-4025,1120,26507
3294000,5936,-6232,12376,-4165,1143,26676
3296000,5900,-6396,12320,-4286,1196,26772
3298000,5768,-6456,12316,-4420,1197,26912
3300000,5588,-6580,12496,-4539,1285,27019
3302000,5444,-6668,12512,-4708,1296,27092
3304000,5476,-6888,12548,-4836,1329,27143
3306004,5560,-6896,12804,-4948,1375,27208
3308000,5396,-6996,12796,-5049,1477,27183
3310000,5456,-7132,12944,-5157,1620,27162
3312000,5460,-7192,13076,-5203,1771,27180
3314000,5184,-7360,13228,-5297,2010,27123
3316000,5224,-7396,13324,-5351,2266,27023
3318000,5016,-7492,13544,-5416,2508,26970
3320000,4868,-7560,13664,-5454,2792,26903
3322000,4712,-7596,13484,-5500,3039,26805
3324000,4456,-7532,13360,-5506,3322,26689
3326000,4240,-7456,13224,-5573,3630,26666
3328000,3984,-7404,13200,-5646,3890,26530
3330000,3824,-7316,13068,-5686,4139,26507
3332000,3704,-7276,12876,-5797,4347,26438
3334000,3516,-7200,12964,-5839,4581,26415
3336004,3444,-7092,12840,-5863,4691,26403
3338000,3300,-7092,12804,-5975,4828,26348
3340000,3204,-6968,12792,-5929,4955,26354
3342000,3204,-6932,12636,-6015,5071,26379
3344000,3136,-6932,12716,-6051,5141,26421
3346004,3100,-6980,12700,-6086,5209,26438
3348000,3068,-6976,12996,-6134,5171,26447
3350000,3248,-7016,13096,-6162,5155,26440
3352000,3396,-7516,13400,-6169,5137,26286
3354000,3156,-7400,13340,-6158,4994,26250
3356000,3172,-7276,13408,-6131,4888,26161
3358000,3176,-7332,13376,-6133,4823,26166
3360000,3152,-7356,13336,-6091,4786,26076
3362000,3144,-7460,13168,-6084,4770,26013
3364004,3072,-7616,13132,-6037,4754,25926
3366000,3160,-7700,13116,-6034,4752,25815
3368000,3104,-7736,13028,-5969,4782,25694
3370000,3020,-7796,12968,-5979,4837,25607
3372000,3024,-7828,12932,-5918,4912,25515
3374000,3068,-7868,12736,-5877,5032,25406
3376000,3000,-7792,12508,-5843,5165,25345
3378000,2932,-7732,12660,-5787,5389,25283
3380000,2880,-7744,12520,-5767,5581,25239
3382000,2880,-7752,12428,-5697,5841,25175
3384000,2764,-7756,12396,-5709,6122,25121
3386000,2772,-7752,12432,-5668,6443,25079
3388000,2748,-7716,12448,-5675,6747,25025
3390000,2528,-7580,12472,-5689,7042,25016
3392000,2420,-7624,12344,-5698,7405,25003
3394000,2336,-7616,12404,-5700,7750,24928
3396000,2308,-7576,12376,-5750,8065,24883
3398000,2120,-7552,12464,-5789,8409,24852
3400000,2092,-7664,12488,-5817,8709,24814
3402000,1944,-7740,12596,-5914,8982,24777
3404004,1804,-7668,12776,-6000,9270,24661
3406000,1680,-7796,12556,-6044,9539,24612
3408000,1608,-7872,12632,-6135,9736,24547
3410000,1528,-7976,12776,-6228,9930,24442
3412000,1472,-8052,12788,-6323,10113,24361
3414000,1412,-8076,12952,-6395,10263,24263
3416000,1280,-8240,13008,-6472,10348,24132
3418000,1264,-8328,13064,-6596,10377,24045
3420000,1256,-8432,13180,-6650,10423,23892
3422000,1292,-8536,13184,-6737,10419,23801
3424000,1164,-8508,13348,-6821,10381,23635
3426000,1180,-8652,13372,-6858,10320,23527
3428000,1052,-8672,13424,-6922,10219,23396
3430000,1056,-8692,13424,-6961,10140,23250
3432000,1004,-8800,13468,-6962,9953,23170
3434004,896,-8760,13480,-6962,9822,23035
3436000,800,-8740,13392,-6998,9672,22920
3438000,780,-8704,13484,-6982,9534,22859
3440000,768,-8576,13500,-6940,9359,22801
3442000,684,-8608,13360,-6902,9217,22750
3444000,720,-8436,13348,-6855,9021,22680
3446000,744,-8460,13356,-6771,8910,22669
3448000,624,-8432,13268,-6723,8724,22664
3450000,556,-8400,13352,-6600,8605,22673
3452000,476,-8328,13260,-6525,8430,22638
3454000,380,-8368,13172,-6451,8307,22648
3456000,328,-8264,13212,-6346,8139,22726
3458000,324,-8196,13304,-6188,7976,22731
3460000,360,-8172,13308,-6171,7834,22784
3462000,272,-8160,13192,-6031,7714,22878
3464004,156,-8100,13180,-5968,7508,22929
3466000,124,-8136,13244,-5837,7393,23045
3468000,100,-8040,13200,-5774,7223,23121
3470000,72,-7984,13364,-5660,7057,23207
3472000,44,-7924,13344,-5628,6862,23356
3474000,-48,-7952,13360,-5565,6704,23493
3476000,-112,-7912,13372,-5524,6481,23628
3478000,-196,-7872,13312,-5523,6326,23736
3480000,-296,-7856,13184,-5485,6208,23864
3482000,-448,-7780,13240,-5556,6095,24053
3484000,-528,-7732,13132,-5589,5999,24179
3486000,-628,-7568,12872,-5601,5908,24368
3488000,-812,-7600,12900,-5692,5875,24535
3490000,-960,-7544,12736,-5804,5889,24707
3492000,-1092,-7428,12516,-5924,5882,24953
3494000,-1244,-7420,12376,-6047,5942,25117
3496000,-1336,-7448,12084,-6218,6006,25288
3498000,-1616,-7368,12016,-6359,6096,25495
3500000,-1784,-7404,11936,-6503,6185,25665
3502000,-1884,-7428,11736,-6707,6302,25804
3504000,-1980,-7468,11700,-6833,6394,25927
3506000,-2096,-7500,11612,-7030,6508,26068
3508000,-2196,-7592,11464,-7156,6648,26104
3510000,-2464,-7652,11448,-7255,6819,26171
3512000,-2556,-7684,11420,-7385,6918,26226
3514000,-2772,-7836,11264,-7461,7051,26303
3516000,-2980,-7940,11208,-7509,7161,26265
3518000,-3132,-8048,11296,-7574,7241,26244
3520000,-3364,-8108,11136,-7622,7321,26213
3522000,-3468,-8200,11064,-7621,7395,26156
3524000,-3748,-8276,11148,-7573,7470,26127
3526000,-3976,-8396,11116,-7550,7515,26064
3528000,-4132,-8464,11116,-7461,7609,25980
3530000,-4320,-8456,11092,-7371,7594,25923
3532004,-4428,-8632,11192,-7296,7664,25823
3534000,-4508,-8708,10872,-7157,7681,25716
3536000,-4548,-8664,10968,-7097,7689,25623
3538000,-4668,-8764,10828,-6990,7765,25484
3540000,-4668,-8812,10680,-6858,7783,25375
3542000,-4740,-8860,10644,-6752,7839,25263
3544000,-4764,-8924,10500,-6665,7915,25151
3546000,-4700,-8912,10320,-6524,7994,25042
3548000,-4720,-8996,10084,-6466,8125,24928
3550000,-4652,-8972,9944,-6323,8288,24793
3552000,-4616,-8996,9872,-6266,8397,24665
3554000,-4568,-9084,9968,-6207,8511,24543
3556000,-4524,-9060,9844,-6119,8660,24401
3558000,-4500,-9160,9820,-6019,8793,24266
3560000,-4516,-9160,9832,-5915,8886,24158
3562004,-4584,-9132,9944,-5845,8972,24057
3564000,-4500,-8992,10012,-5711,9020,23939
3566000,-4468,-9048,10116,-5574,9090,23865
3568000,-4540,-8968,10252,-5476,9069,23770
3570004,-4344,-8920,10316,-5331,9045,23627
3572000,-4348,-8900,10472,-5203,9029,23501
3574000,-4272,-8776,10504,-5104,8921,23349
3576000,-4148,-8796,10556,-5018,8879,23263
3578000,-4156,-8704,10748,-4882,8759,23124
3580000,-4072,-8604,10752,-4794,8697,22956
3582000,-4076,-8508,10888,-4723,8614,22817
3584000,-4184,-8356,10956,-4606,8487,22696
3586000,-4180,-8300,10940,-4540,8431,22632
3588004,-4304,-8124,11108,-4415,8334,22526
3590000,-4332,-7952,11060,-4342,8232,22452
3592004,-4404,-7796,11108,-4226,8184,22360
3594000,-4680,-7624,11124,-4118,8111,22304
3596000,-4896,-7420,11312,-4041,8066,22293
3598000,-5124,-7264,11264,-3872,8028,22302
3600000,-5308,-7072,11184,-3865,7953,22322
3602004,-5560,-6920,11216,-3749,7894,22345
3604000,-5816,-6724,11300,-3745,7860,22395
3606000,-6152,-6596,11388,-3675,7818,22455
3608000,-6364,-6464,11372,-3635,7716,22536
3610000,-6604,-6360,11560,-3603,7591,22637
3612000,-6828,-6368,11648,-3583,7442,22733
3614000,-7000,-6180,11772,-3551,7308,22786
3616000,-7212,-6200,11980,-3523,7104,22842
3618000,-7464,-6188,12012,-3508,6903,22955
3620000,-7636,-6156,12156,-3507,6666,23042
3622000,-7848,-6144,12184,-3499,6436,23049
3624004,-7992,-6128,12280,-3485,6122,23110
3626000,-8228,-6184,12512,-3493,5799,23134
3628000,-8252,-6180,12656,-3464,5416,23088
3630000,-8456,-6172,12592,-3438,5055,23108
3632000,-8536,-6212,12752,-3432,4645,23083
3634000,-8580,-6240,12696,-3358,4283,23054
3636000,-8640,-6132,12740,-3360,3853,22962
3638000,-8756,-6052,12716,-3372,3477,22891
3640000,-8980,-6068,12904,-3318,3033,22836
3642000,-9032,-6008,12900,-3267,2617,22773
3644000,-9100,-5944,12844,-3212,2223,22679
3646000,-9112,-5940,12844,-3189,1858,22616
3648000,-9116,-5856,12840,-3111,1473,22510
3650000,-9104,-5860,12736,-3062,1131,22403
3652000,-9100,-5728,12528,-3006,830,22284
3654000,-9056,-5644,12368,-2991,567,22238
3656000,-9008,-5572,12236,-3008,261,22127
3658000,-8968,-5396,12136,-2941,78,22033
3660000,-8912,-5320,12000,-2942,-142,21927
3662000,-8880,-5224,11776,-2948,-332,21867
3664000,-8828,-5076,11648,-2903,-439,21783
3666000,-8828,-4972,11620,-2913,-548,21680
3668000,-8788,-4920,11440,-2914,-615,21633
3670000,-8760,-4756,11528,-2891,-682,21567
3672000,-8764,-4732,11556,-2897,-700,21484
3674000,-8772,-4584,11504,-2894,-634,21402
3676000,-8748,-4592,11536,-2891,-614,21345
3678000,-8740,-4540,11468,-2883,-568,21259
3680000,-8804,-4496,11504,-2885,-417,21174
3682000,-8824,-4412,11592,-2886,-367,21111
3684004,-8892,-4452,11584,-2883,-235,21005
3686000,-8816,-4436,11640,-2889,-161,20878
3688000,-8844,-4460,11552,-2938,-71,20716
3690004,-8948,-4484,11556,-2997,24,20645
3692000,-8956,-4504,11696,-3030,39,20471
3694000,-9000,-4560,11684,-3139,95,20276
3696000,-9008,-4768,11788,-3254,206,20118
3698000,-9084,-4720,11852,-3354,211,19895
3700000,-9100,-4844,12032,-3512,227,19706
3702000,-9160,-4960,11908,-3671,199,19487
3704000,-9116,-4980,12084,-3869,250,19239
3706000,-9052,-5112,11928,-4020,320,19004
3708000,-9128,-5224,11864,-4222,307,18738
3710000,-9072,-5276,11912,-4367,348,18456
3712000,-9152,-5332,11788,-4546,355,18179
3714000,-9100,-5424,11692,-4748,338,17910
3716000,-9204,-5468,11656,-4913,322,17633
3718000,-9272,-5388,11576,-5038,357,17334
3720000,-9280,-5488,11432,-5161,304,17127
3722000,-9320,-5492,11220,-5265,304,16894
3724000,-9396,-5336,11128,-5385,291,16698
3726000,-9560,-5372,10888,-5463,303,16509
3728004,-9644,-5312,10800,-5527,273,16337
3730000,-9748,-5208,10724,-5622,300,16226
3732000,-9832,-5180,10572,-5686,273,16130
3734000,-10052,-5100,10384,-5703,216,16004
3736000,-10232,-5172,10296,-5738,217,15920
3738000,-10412,-5160,10364,-5773,115,15909
3740000,-10576,-5120,10284,-5814,27,15944
3742000,-10884,-5320,10180,-5764,-49,15910
3744000,-11136,-5208,10084,-5770,-155,15964
3746000,-11332,-5264,10056,-5787,-189,16027
3748000,-11512,-5296,9908,-5705,-297,16095
3750000,-11672,-5264,9772,-5727,-424,16167
3752000,-11860,-5380,9780,-5738,-549,16285
3754000,-12024,-5384,9792,-5706,-668,16350
3756000,-12152,-5500,9860,-5718,-818,16433
3758000,-12104,-5560,9704,-5678,-952,16490
3760000,-12268,-5564,9956,-5728,-1106,16556
3762000,-12284,-5676,9980,-5745,-1160,16670
3764000,-12348,-5796,9940,-5720,-1214,16732
3766000,-12324,-5916,9844,-5738,-1241,16736
3768000,-12292,-6028,9764,-5739,-1191,16738
3770000,-12364,-6112,9748,-5799,-1235,16739
3772000,-12472,-6148,9704,-5856,-1244,16744
3774000,-12484,-6080,9648,-5924,-1275,16668
3776000,-12500,-6164,9620,-6011,-1282,16658
3778000,-12520,-6176,9476,-6073,-1242,16628
3780000,-12516,-6080,9536,-6173,-1205,16539
3782000,-12576,-5996,9556,-6226,-1086,16480
3784000,-12652,-5924,9652,-6297,-987,16427
3786000,-12724,-5740,9640,-6394,-905,16281
3788004,-12768,-5692,9516,-6469,-856,16181
3790000,-12740,-5632,9628,-6554,-761,16131
3792000,-12760,-5520,9656,-6601,-694,15998
3794000,-12800,-5412,9592,-6670,-604,15845
3796000,-12880,-5260,9612,-6758,-576,15736
3798000,-13012,-5140,9488,-6811,-481,15589
3800000,-13156,-4976,9440,-6863,-448,15499
3802000,-13268,-4984,9404,-6904,-384,15365
3804000,-13348,-4904,9484,-6929,-379,15233
3806000,-13488,-4816,9420,-6970,-268,15141
3808000,-13448,-4656,9180,-6976,-176,15026
3810000,-13600,-4604,9160,-6992,-118,14882
3812000,-13600,-4572,9024,-7008,-26,14784
3814000,-13744,-4480,8896,-7007,49,14673
3816000,-13756,-4384,8884,-7035,182,14596
3818004,-13840,-4368,8664,-7020,245,14526
3820000,-13864,-4288,8680,-7024,353,14453
3822000,-14060,-4324,8448,-6993,455,14343
3824000,-14040,-4200,8308,-6993,546,14321
3826004,-14120,-4088,8312,-6955,663,14272
3828000,-14284,-4156,8232,-6971,740,14225
3830000,-14360,-4000,8260,-6925,814,14203
3832000,-14436,-4056,8320,-6840,874,14222
3834000,-14612,-4016,8264,-6765,893,14179
3836000,-14872,-3916,8196,-6681,947,14190
3838000,-15064,-3992,8284,-6586,984,14195
3840000,-15300,-3960,8292,-6487,984,14133
3842000,-15532,-3988,8424,-6354,968,14069
3844000,-15784,-4016,8540,-6261,828,14116
3846000,-16120,-3984,8616,-6108,772,14011
3848000,-16276,-4068,8644,-5964,648,13957
3850000,-16524,-4096,8828,-5796,488,13880
3852000,-16768,-4152,9120,-5623,342,13725
3854000,-16968,-4144,9200,-5457,182,13530
3856000,-17100,-4244,9348,-5283,-58,13329
3858004,-17268,-4352,9480,-5071,-335,13126
3860000,-17352,-4360,9784,-4860,-590,12857
3862000,-17428,-4380,10148,-4642,-954,12497
3864000,-17492,-4440,10392,-4430,-1404,12177
3866000,-17484,-4556,10712,-4228,-1869,11776
3868000,-17592,-4504,10948,-4038,-2309,11383
3870000,-17548,-4596,11128,-3771,-2800,10964
3872000,-17712,-4572,11380,-3507,-3360,10533
3874000,-17712,-4480,11628,-3267,-3933,10074
3876000,-17736,-4388,11672,-2996,-4452,9631
3878000,-17632,-4192,11464,-2750,-4960,9152
3880000,-17516,-4040,11388,-2446,-5482,8708
3882000,-17368,-3888,11216,-2159,-5911,8218
3884000,-17380,-3596,11064,-1892,-6335,7796
3886000,-17228,-3476,10852,-1639,-6787,7343
3888000,-17208,-3132,10872,-1387,-7215,6877
3890000,-17296,-2944,10612,-1166,-7567,6472
3892000,-17292,-2800,10548,-873,-7862,6131
3894000,-17276,-2732,10188,-645,-8168,5739
3896000,-17332,-2696,10248,-378,-8419,5466
3898000,-17404,-2480,10312,-100,-8661,5256
3900000,-17244,-2200,9948,175,-8881,5013
3902000,-17168,-1984,9856,374,-9027,4830
3904000,-17132,-1812,9852,632,-9211,4665
3906000,-16952,-1840,10144,910,-9371,4520
3908000,-16720,-1864,10360,1236,-9469,4421
3910000,-16700,-1788,10596,1563,-9626,4302
3912000,-16600,-1760,10660,1882,-9814,4260
3914000,-16404,-1756,10632,2191,-10000,4185
3916000,-16220,-1748,10860,2522,-10186,4111
3918000,-15980,-1752,10932,2795,-10453,3994
3920000,-15844,-1792,11048,3140,-10723,3914
3922000,-15596,-1812,11244,3428,-10974,3816
3924004,-15384,-2000,11236,3682,-11214,3665
3926000,-15056,-2052,11444,3986,-11479,3563
3928000,-14872,-2148,11552,4330,-11746,3434
3930000,-14688,-2272,11476,4553,-12015,3279
3932000,-14456,-2332,11280,4780,-12286,3129
3934000,-14188,-2436,11240,5062,-12427,3011
3936000,-14040,-2272,11068,5279,-12504,2842
3938000,-14032,-2200,10936,5466,-12572,2648
3940000,-13956,-2072,10644,5623,-12614,2503
3942000,-13868,-1932,10336,5740,-12564,2318
3944000,-13956,-1764,10128,5812,-12475,2150
3946000,-14172,-1696,9840,5917,-12313,2033
3948000,-14304,-1760,9804,6063,-12045,1876
3950000,-14548,-1692,9752,6213,-11761,1691
3952000,-14808,-1540,9540,6331,-11486,1543
3954000,-15172,-1368,9448,6398,-11208,1395
3956000,-15468,-1380,9428,6520,-10941,1241
3958000,-15904,-1328,9408,6563,-10701,1044
3960000,-16256,-1192,9792,6623,-10435,882
3962000,-16656,-1328,10052,6614,-10267,674
3964000,-17000,-1364,10356,6704,-10099,463
3966000,-17280,-1644,10824,6729,-10062,241
3968000,-17596,-1784,11140,6745,-10086,-11
3970000,-17972,-1940,11468,6784,-10195,-307
3972004,-18196,-2012,11684,6782,-10383,-547
3974000,-18400,-2188,11904,6761,-10650,-809
3976004,-18544,-2268,12120,6701,-10913,-1075
3978000,-18796,-2352,12232,6670,-11271,-1338
3980000,-18800,-2328,12236,6615,-11599,-1621
3982000,-18848,-2420,12236,6546,-11955,-1899
3984000,-18812,-2428,12360,6474,-12371,-2174
3986004,-18900,-2336,12444,6410,-12825,-2402
3988000,-18876,-2392,12528,6394,-13264,-2677
3990000,-18864,-2260,12428,6348,-13660,-2882
3992000,-18752,-2212,12532,6377,-14119,-3161
3994000,-18672,-2120,12704,6392,-14562,-3373
3996000,-18608,-2048,12764,6398,-15036,-3640
3998000,-18556,-2056,12668,6452,-15493,-3864
4000000,-18504,-2028,12912,6543,-15979,-4178
4002000,-18436,-1936,13008,6568,-16475,-4402
4004000,-18512,-1852,13220,6651,-17005,-4735
4006000,-18392,-1820,13528,6729,-17541,-5020
4008004,-18444,-1752,13632,6823,-18092,-5362
4010000,-18472,-1672,13880,6904,-18668,-5718
4012000,-18492,-1624,14128,7013,-19281,-6090
4014000,-18528,-1620,14156,7150,-19912,-6496
4016000,-18464,-1576,14280,7269,-20539,-6871
4018000,-18396,-1592,14212,7385,-21191,-7288
4020000,-18204,-1500,14352,7477,-21904,-7722
4022000,-17972,-1312,14296,7547,-22652,-8170
4024000,-17740,-1272,14084,7660,-23332,-8600
4026000,-17548,-1284,14208,7690,-24106,-9069
4028000,-17300,-1316,14152,7750,-24845,-9593
4030000,-16972,-1368,14068,7760,-25622,-10095
4032000,-16676,-1388,14144,7772,-26389,-10603
4034000,-16388,-1352,14304,7731,-27144,-11068
4036000,-16064,-1312,14160,7691,-27852,-11592
4038000,-15832,-1308,13860,7696,-28463,-12041
4040000,-15680,-1024,13604,7590,-28992,-12501
4042000,-15516,-812,13704,7520,-29483,-12889
4044000,-15512,-628,13476,7472,-29936,-13276
4046000,-15428,-364,13344,7389,-30302,-13642
4048000,-15328,-144,12904,7273,-30571,-13966
4050000,-15268,-20,12692,7206,-30647,-14314
4052004,-15304,176,12732,7088,-30783,-14602
4054000,-15164,292,12688,7043,-30881,-14831
4056004,-14908,436,12244,6910,-30822,-15046
4058000,-14880,508,12252,6769,-30698,-15257
4060000,-14828,656,12348,6684,-30675,-15435
4062000,-14712,740,11948,6535,-30524,-15592
4064000,-14532,828,11724,6412,-30300,-15702
4066000,-14440,860,12056,6239,-30167,-15813
4068000,-14320,856,12292,6129,-30091,-15906
4070000,-14160,836,12492,6020,-30023,-15984
4072000,-13752,696,12324,5891,-29765,-16016
4074000,-13544,708,12164,5815,-29403,-16088
4076000,-13464,672,12424,5733,-29002,-16217
4078000,-13168,636,12180,5656,-28543,-16233
4080000,-13000,676,12252,5582,-28115,-16286
4082000,-12792,636,12296,5506,-27641,-16309
4084000,-12752,616,12456,5418,-27256,-16380
4086000,-12780,740,12804,5363,-26977,-16441
4088000,-12736,752,12776,5330,-26802,-16514
4090000,-12748,820,12932,5186,-26512,-16660
4092004,-12488,864,13356,5144,-26226,-16737
4094000,-12480,976,13464,5075,-26004,-16891
4096000,-12336,932,13892,4960,-25690,-17072
4098000,-12288,1004,13700,4912,-25352,-17290
4100004,-12352,924,14204,4808,-25091,-17468
4102000,-12336,852,14596,4709,-25086,-17661
4104004,-12320,700,14932,4608,-25141,-17887
4106000,-12136,528,15048,4452,-25318,-18038
4108000,-11892,236,15192,4218,-25539,-18210
4110000,-11636,40,15164,4023,-25777,-18407
4112000,-11348,-200,15268,3749,-25934,-18631
4114004,-10980,-420,15408,3534,-26290,-18806
4116000,-10592,-732,15644,3274,-26659,-19010
4118000,-10260,-968,15576,2930,-27008,-19150
4120000,-10104,-1256,15584,2603,-27339,-19315
4122000,-10016,-1432,15828,2234,-27699,-19459
4124000,-9692,-1740,15660,1924,-27901,-19549
4126000,-9456,-2012,15816,1573,-28080,-19655
4128000,-9356,-2180,15892,1279,-28190,-19710
4130000,-9184,-2364,16044,914,-28268,-19759
4132000,-8984,-2512,16136,520,-28339,-19789
4134000,-8908,-2784,15876,173,-28430,-19809
4136004,-8784,-2920,15800,-219,-28456,-19814
4138000,-8564,-3128,15648,-562,-28462,-19849
4140000,-8392,-3320,15852,-858,-28365,-19882
4142000,-8216,-3352,15596,-1140,-28107,-19934
4144000,-8196,-3452,15704,-1330,-27811,-20028
4146000,-8268,-3404,15980,-1495,-27534,-20084
4148000,-8196,-3356,15892,-1674,-27255,-20096
4150000,-8416,-3252,15824,-1775,-26894,-20189
4152000,-8616,-3064,15852,-1875,-26507,-20228
4154000,-8664,-2968,15964,-1947,-26032,-20279
4156000,-8556,-2776,16100,-2007,-25456,-20369
4158000,-8524,-2688,16312,-2024,-24840,-20419
4160000,-8484,-2552,16344,-2068,-23972,-20483
4162000,-8460,-2436,16536,-2083,-23182,-20533
4164000,-8212,-2220,16972,-2085,-22370,-20610
4166000,-7988,-2056,17140,-2063,-21585,-20688
4168000,-7712,-1888,17324,-2063,-20745,-20781
4170000,-7608,-1800,17584,-2120,-20082,-20846
4172000,-7176,-1608,17868,-2162,-19344,-20981
4174000,-6900,-1376,17240,-2294,-18796,-21073
4176000,-6668,-1236,17260,-2583,-18240,-21191
4178000,-6476,-1188,17776,-2760,-17853,-21276
4180004,-6232,-1156,17356,-2977,-17412,-21337
4182000,-6072,-1108,17156,-3257,-16921,-21455
4184004,-6020,-1012,16980,-3520,-16511,-21520
4186000,-6060,-1104,17084,-3787,-16218,-21581
4188000,-6112,-1232,17352,-4046,-15950,-21591
4190000,-6176,-1348,17336,-4350,-15721,-21502
4192000,-6164,-1484,17472,-4564,-15559,-21468
4194000,-6068,-1656,17512,-4887,-15333,-21395
4196000,-5908,-1952,17444,-5170,-15057,-21318
4198000,-5776,-2276,17456,-5373,-14740,-21121
4200000,-5728,-2460,17760,-5662,-14463,-20982
4202000,-5804,-2520,17628,-5891,-14200,-20825
4204000,-5860,-2704,17816,-6158,-13943,-20636
4206000,-5848,-2764,17748,-6380,-13642,-20391
4208000,-5864,-2804,17912,-6551,-13368,-20208
4210000,-5844,-2936,18256,-6732,-13168,-20040
4212000,-5900,-2956,18296,-6887,-13065,-19886
4214000,-5928,-3012,18352,-7053,-13034,-19740
4216000,-5964,-3076,18200,-7160,-12972,-19599
4218000,-5964,-3220,18016,-7198,-12908,-19586
4220000,-5948,-3240,18292,-7277,-12976,-19524
4222000,-5940,-3360,18184,-7310,-13088,-19479
4224000,-5996,-3480,18416,-7272,-13149,-19559
4226000,-5676,-3632,18720,-7275,-13276,-19600
4228000,-5540,-3848,18860,-7236,-13383,-19638
4230000,-5364,-3876,19076,-7152,-13449,-19745
4232004,-5196,-3996,18924,-7061,-13589,-19868
4234000,-5180,-4120,19064,-6972,-13540,-19991
4236000,-5128,-4128,18904,-6888,-13499,-20108
4238000,-5076,-4160,18676,-6722,-13419,-20261
4240000,-5116,-4156,18544,-6638,-13283,-20366
4242004,-5096,-4120,18380,-6537,-12993,-20459
4244000,-5052,-4012,18164,-6412,-12733,-20573
4246000,-5124,-4104,17976,-6249,-12405,-20588
4248000,-5048,-4268,18096,-6102,-12155,-20648
4250000,-4868,-4432,18108,-5926,-11865,-20697
4252000,-4796,-4552,18052,-5790,-11590,-20714
4254000,-4784,-4596,18124,-5626,-11332,-20632
4256000,-4780,-4732,18376,-5521,-11149,-20554
4258000,-4860,-4860,18724,-5360,-11085,-20535
4260004,-5032,-5040,18820,-5253,-11214,-20337
4262000,-5056,-5180,18900,-5147,-11451,-20209
4264000,-5168,-5196,18988,-5079,-11837,-20044
4266000,-5240,-5368,19088,-4992,-12252,-19799
4268000,-5196,-5376,18960,-5000,-12807,-19523
4270000,-5184,-5432,19124,-4893,-13315,-19269
4272000,-5080,-5384,19212,-4891,-13875,-18986
4274000,-4936,-5424,19368,-4872,-14496,-18679
4276000,-4728,-5448,19428,-4808,-15129,-18402
4278000,-4492,-5436,19572,-4775,-15844,-18104
4280000,-4200,-5376,19572,-4753,-16546,-17853
4282000,-4216,-5188,19568,-4701,-17197,-17592
4284000,-4124,-5076,19376,-4652,-17877,-17337
4286000,-4092,-4872,19288,-4586,-18422,-17105
4288000,-4172,-4596,18980,-4493,-18973,-16801
4290000,-4224,-4484,18832,-4441,-19497,-16576
4292000,-4228,-4260,18560,-4355,-19924,-16305
4294000,-4280,-4132,18360,-4305,-20423,-16053
4296000,-4280,-3968,18024,-4282,-20841,-15766
4298000,-4232,-3864,17556,-4227,-21153,-15555
4300000,-4112,-3712,17256,-4167,-21422,-15281
4302000,-4036,-3636,17028,-4104,-21611,-15118
4304000,-3848,-3572,16548,-4038,-21730,-14916
4306000,-3668,-3492,16244,-4011,-21833,-14682
4308004,-3320,-3484,15784,-3991,-21883,-14555
4310000,-3044,-3532,15408,-3965,-21826,-14391
4312000,-2724,-3588,15116,-3992,-21839,-14302
4314000,-2304,-3752,14624,-3992,-21772,-14160
4316000,-1944,-3852,14504,-4027,-21714,-14066
4318000,-1596,-4048,13976,-4109,-21542,-13993
4320000,-1264,-4300,13720,-4188,-21350,-13916
4322000,-996,-4556,13456,-4296,-21077,-13904
4324000,-800,-4808,13348,-4384,-20726,-13824
4326000,-632,-5188,13180,-4425,-20350,-13763
4328000,-452,-5324,13016,-4555,-19927,-13735
4330000,-200,-5576,12888,-4651,-19403,-13681
4332000,144,-5916,12836,-4745,-18991,-13704
4334000,436,-6096,12784,-4824,-18455,-13649
4336000,808,-6292,12712,-4923,-17928,-13632
4338000,1236,-6408,12760,-5001,-17360,-13648
4340000,1528,-6600,12832,-5047,-16867,-13673
4342000,1808,-6680,12832,-5112,-16396,-13672
4344000,2052,-6856,13016,-5129,-15928,-13644
4346000,2204,-6952,13108,-5215,-15536,-13611
4348000,2312,-7020,13148,-5220,-15094,-13541
4350000,2284,-6984,13312,-5238,-14717,-13481
4352000,2284,-7024,13272,-5188,-14351,-13399
4354000,2164,-7068,13400,-5144,-14004,-13252
4356000,2120,-7000,13440,-5096,-13640,-13131
4358000,1944,-7012,13480,-5004,-13353,-12982
4360004,1948,-6800,13576,-4850,-13084,-12867
4362000,1856,-6628,13700,-4662,-12804,-12748
4364000,1832,-6396,13804,-4481,-12547,-12613
4366000,1648,-6240,14208,-4253,-12321,-12493
4368000,1588,-6036,14212,-3967,-12200,-12430
4370004,1604,-5980,14340,-3631,-12066,-12345
4372000,1464,-5936,14332,-3323,-11978,-12323
4374000,1392,-5944,14456,-2981,-11944,-12269
4376000,1252,-5860,14504,-2660,-11937,-12248
4378000,1068,-5880,14492,-2311,-11826,-12239
4380000,980,-5920,14524,-1972,-11770,-12212
4382000,1028,-6028,14396,-1649,-11656,-12216
4384000,988,-6092,14420,-1259,-11498,-12207
4386000,1052,-6088,14588,-929,-11354,-12170
4388004,1336,-6264,14732,-589,-11140,-12163
4390000,1592,-6284,14856,-244,-10978,-12140
4392000,1772,-6376,14984,88,-10859,-12110
4394000,1960,-6420,15000,319,-10810,-12029
4396000,2132,-6488,14908,648,-10755,-12022
4398000,2232,-6508,14872,856,-10698,-11967
4400000,2456,-6560,14736,1026,-10640,-11923
4402000,2708,-6692,14744,1201,-10665,-11854
4404000,2920,-6748,14776,1337,-10625,-11782
4406000,2984,-6836,14656,1471,-10685,-11684
4408000,3120,-7004,14708,1525,-10795,-11614
4410000,3276,-7116,14532,1584,-10966,-11446
4412000,3336,-7132,14536,1571,-11115,-11312
4414000,3492,-7160,14484,1545,-11273,-11169
4416000,3600,-6996,14368,1549,-11413,-11013
4418000,3636,-6868,14184,1503,-11562,-10873
4420000,3792,-6568,14136,1447,-11719,-10739
4422000,3872,-6148,14000,1351,-11796,-10586
4424000,4108,-5784,13752,1315,-11916,-10425
4426000,4144,-5468,13516,1235,-11971,-10331
4428000,4328,-5128,13116,1090,-12033,-10190
4430000,4428,-4792,12788,994,-12010,-10111
4432000,4676,-4504,12372,898,-11947,-10040
4434000,4760,-4404,12248,808,-11751,-9976
4436004,4896,-4296,11972,659,-11483,-9915
4438000,5052,-4220,11988,577,-11268,-9836
4440004,5156,-4064,12028,475,-11067,-9772
4442000,5132,-4036,12148,383,-10937,-9688
4444000,5208,-4020,12164,283,-10797,-9670
4446000,5264,-4204,12396,296,-10642,-9541
4448000,5540,-4356,12872,322,-10488,-9514
4450000,5344,-3912,14100,359,-10787,-9453
4452000,4856,-3356,15380,285,-11350,-9374
4454000,4072,-3120,16688,109,-12084,-9369
4456000,3468,-3320,17144,-283,-12846,-9359
4458000,3188,-3536,16644,-751,-13170,-9404
4460000,3144,-3948,15556,-1298,-12969,-9560
4462000,3248,-4288,14368,-1771,-12427,-9758
4464000,3436,-4756,14052,-2234,-11803,-10028
4466000,3484,-5168,14352,-2631,-11426,-10423
4468000,3712,-5576,14772,-3032,-11416,-10907
4470000,3856,-6068,15232,-3463,-11615,-11465
4472000,4180,-6708,15320,-3916,-11837,-12060
4474000,4480,-7200,15304,-4377,-11980,-12690
4476000,4900,-7544,15072,-4818,-12045,-13368
4478000,5196,-7724,14780,-5309,-12028,-14013
4480000,5464,-7784,14432,-5766,-11910,-14658
4482000,5532,-7472,14112,-6148,-11835,-15261
4484004,5524,-7100,13976,-6475,-11891,-15855
4486000,5456,-6748,13736,-6771,-11966,-16409
4488004,5480,-6208,13568,-7018,-12109,-16931
4490000,5616,-5796,13444,-7203,-12270,-17411
4492000,5792,-5424,13348,-7342,-12370,-17866
4494000,5920,-5332,12972,-7446,-12459,-18264
4496000,6212,-5024,12796,-7484,-12429,-18638
4498004,6456,-4848,12764,-7477,-12381,-18982
4500000,6532,-4780,12556,-7475,-12406,-19274
4502000,6664,-4608,12548,-7336,-12398,-19520
4504000,6704,-4544,12288,-7243,-12358,-19754
4506000,6936,-4424,12020,-7061,-12240,-19965
4508000,7192,-4328,11644,-6883,-12047,-20160
4510000,7392,-4120,11576,-6672,-11836,-20236
4512000,7616,-3760,11572,-6392,-11632,-20380
4514000,7828,-3516,11396,-6122,-11377,-20413
4516000,8060,-3196,11320,-5861,-11267,-20484
4518000,8268,-2904,11224,-5584,-11305,-20503
4520004,8380,-2592,11224,-5383,-11514,-20495
4522000,8640,-2240,11120,-5144,-11785,-20492
4524000,9000,-1980,11120,-4937,-12154,-20462
4526000,9368,-1572,11160,-4727,-12643,-20499
4528000,9472,-1248,11120,-4607,-13068,-20477
4530000,9324,-996,10936,-4487,-13430,-20476
4532000,9300,-804,11012,-4341,-13763,-20459
4534000,9312,-564,11236,-4299,-14186,-20379
4536000,9276,-352,11260,-4243,-14505,-20310
4538000,9260,-224,11252,-4219,-14823,-20238
4540000,9292,-120,11476,-4262,-15017,-20149
4542000,9360,-76,11560,-4252,-15247,-20049
4544000,9480,-144,11444,-4337,-15323,-19976
4546000,9324,-328,11328,-4381,-15349,-19838
4548000,9108,-492,11108,-4467,-15265,-19702
4550000,8992,-628,11092,-4583,-15151,-19483
4552000,8812,-804,11028,-4685,-14932,-19290
4554000,8724,-1128,11032,-4785,-14639,-19045
4556000,8884,-1376,11120,-4932,-14418,-18736
4558000,8928,-1632,11360,-5013,-14230,-18442
4560000,9076,-1780,11648,-5093,-13979,-18156
4562000,9104,-1940,11712,-5154,-13730,-17868
4564004,9092,-2116,11728,-5192,-13440,-17531
4566000,9032,-2272,11912,-5166,-13200,-17216
4568000,8920,-2380,11864,-5210,-12943,-16909
4570000,8732,-2520,11576,-5101,-12551,-16555
4572000,8784,-2608,11608,-5043,-12218,-16204
4574000,8772,-2740,11508,-4906,-11920,-15814
4576000,8892,-2676,11716,-4756,-11655,-15450
4578000,9132,-2584,11692,-4504,-11404,-15124
4580000,9248,-2424,11600,-4289,-11214,-14817
4582000,9344,-2332,11684,-4010,-11095,-14515
4584000,9380,-2112,11456,-3758,-10961,-14243
4586000,9560,-2012,11188,-3444,-10851,-13962
4588004,9676,-1820,11040,-3159,-10722,-13782
4590000,9856,-1604,11196,-2825,-10671,-13551
4592000,10156,-1372,11136,-2469,-10707,-13356
4594000,10324,-1152,11256,-2141,-10719,-13214
4596000,10480,-968,11080,-1807,-10751,-13082
4598000,10520,-720,11012,-1444,-10819,-12928
4600000,10584,-564,10880,-1135,-10726,-12770
4602000,10632,-408,10704,-856,-10666,-12590
4604000,10704,-304,10756,-541,-10615,-12395
4606000,10692,-184,10636,-319,-10441,-12231
4608000,10692,-44,10420,-43,-10202,-12019
4610000,10908,-68,10536,187,-10043,-11791
4612000,11132,56,10516,358,-9845,-11548
4614000,11228,140,10192,562,-9537,-11266
4616004,11228,128,9984,756,-9181,-10915
4618000,11440,216,9968,876,-8939,-10595
4620000,11556,168,10104,979,-8686,-10259
4622000,11712,288,10036,1070,-8413,-9854
4624004,11892,252,10088,1127,-8135,-9499
4626000,11952,320,10116,1222,-7927,-9169
4628000,11944,392,10004,1252,-7697,-8820
4630000,11668,492,9980,1232,-7457,-8457
4632000,11564,432,9888,1297,-7204,-8113
4634000,11532,440,9988,1271,-7036,-7802
4636000,11416,400,10208,1273,-6978,-7496
4638000,11164,508,9976,1207,-6828,-7228
4640000,10912,448,10068,1200,-6648,-6941
4642000,10736,256,10232,1117,-6485,-6719
4644000,10712,-4,10488,1111,-6375,-6591
4646000,10664,-344,10760,983,-6327,-6439
4648004,10632,-616,10772,889,-6276,-6365
4650000,10372,-988,10904,801,-6203,-6282
4652000,10300,-1288,11164,696,-6222,-6169
4654004,10472,-1716,11408,623,-6298,-6156
4656000,10676,-2080,11552,477,-6427,-6166
4658000,10608,-2352,11632,402,-6598,-6204
4660000,10608,-2644,11720,308,-6862,-6210
4662000,10672,-2744,11800,239,-7106,-6211
4664004,10840,-2836,11508,162,-7354,-6224
4666000,10932,-2860,11604,154,-7557,-6232
4668000,11068,-2848,11608,103,-7799,-6241
4670000,11216,-2764,11532,137,-7941,-6312
4672004,11368,-2684,11448,143,-8066,-6334
4674000,11408,-2564,11320,219,-8099,-6296
4676000,11516,-2484,11128,283,-8129,-6293
4678000,11648,-2448,10984,391,-8171,-6324
4680000,11696,-2280,10568,467,-8152,-6306
4682000,11828,-2216,10244,567,-8037,-6280
4684004,11988,-2104,10032,698,-7973,-6246
4686000,12112,-2008,9700,802,-7871,-6267
4688000,12276,-1788,9592,980,-7777,-6230
4690000,12420,-1648,9380,1066,-7676,-6189
4692004,12552,-1440,9208,1193,-7599,-6162
4694000,12584,-1188,9156,1345,-7494,-6053
4696000,12688,-1040,9024,1435,-7369,-5958
4698000,12720,-940,8860,1513,-7299,-5844
4700000,12784,-708,8816,1635,-7185,-5776
4702004,12700,-560,8728,1732,-7072,-5631
4704000,12708,-432,8736,1817,-6992,-5525
4706000,12676,-280,8552,1867,-6947,-5418
4708000,12688,-192,8564,1907,-6870,-5308
4710000,12692,-52,8508,1983,-6840,-5188
4712000,12748,36,8416,1972,-6781,-5085
4714000,12828,116,8424,1959,-6683,-5007
4716000,12812,196,8304,1942,-6603,-4898
4718000,12900,284,8268,1884,-6481,-4783
4720000,12924,340,8364,1864,-6340,-4736
4722000,13068,364,8484,1753,-6223,-4662
4724000,12976,356,8352,1664,-6087,-4565
4726000,13052,328,8328,1554,-5904,-4516
4728000,13076,228,8248,1387,-5734,-4363
4730000,13072,204,8368,1210,-5553,-4294
4732000,12956,160,8256,1089,-5342,-4204
4734000,12928,180,8188,886,-5116,-4106
4736000,12788,72,8244,749,-4913,-4005
4738000,12748,-12,8224,565,-4737,-3929
4740004,12676,48,8408,417,-4581,-3849
4742000,12672,-24,8464,297,-4516,-3808
4744004,12668,-92,8504,125,-4447,-3774
4746000,12644,-40,8568,-33,-4330,-3783
4748000,12656,28,8624,-56,-4174,-3824
4750000,12564,28,8636,-151,-4014,-3833
4752000,12432,24,8716,-260,-3911,-3847
4754004,12380,76,8860,-306,-3759,-3861
4756000,12284,36,8992,-321,-3633,-3879
4758000,12188,180,8968,-359,-3445,-3851
4760000,12204,224,9004,-379,-3339,-3828
4762000,12308,248,8924,-404,-3145,-3807
4764000,12356,312,9156,-370,-2898,-3716
4766000,12428,364,9100,-351,-2691,-3665
4768000,12616,228,8980,-251,-2447,-3611
4770000,12836,112,8996,-181,-2184,-3576
4772000,12928,64,8872,-139,-1869,-3551
4774000,13044,0,8872,-37,-1600,-3461
4776000,13040,60,8796,6,-1332,-3373
4778000,13140,44,8800,99,-1023,-3306
4780000,13188,48,8836,185,-693,-3271
4782000,13328,140,8716,278,-459,-3170
4784000,13252,124,8704,342,-191,-3085
4786000,13304,284,8520,461,82,-3044
4788000,13424,404,8444,513,387,-2940
4790000,13400,488,8360,604,676,-2849
4792000,13468,620,8292,653,996,-2752
4794000,13560,764,8396,731,1328,-2613
4796000,13544,892,8388,800,1620,-2536
4798000,13528,1020,8536,878,1882,-2419
4800000,13492,1052,8580,879,2190,-2260
4802000,13232,1100,8616,929,2414,-2147
4804000,13240,1176,8632,896,2661,-2010
4806000,13156,1292,8700,882,2854,-1906
4808000,13052,1320,8616,827,3073,-1795
4810000,12992,1368,8664,787,3355,-1661
4812000,12920,1376,8696,704,3623,-1540
4814000,12972,1420,8792,590,3837,-1432
4816000,12800,1360,8928,474,3951,-1342
4818000,12736,1348,9160,345,3928,-1246
4820004,12704,1268,9140,191,3759,-1157
4822000,12824,1264,9164,40,3470,-1083
4824004,12844,1196,9172,-132,3241,-1029
4826000,12920,1092,9152,-265,2961,-1033
4828000,12956,1136,9256,-453,2681,-999
4830000,12952,1064,9388,-625,2477,-998
4832000,12992,1048,9492,-762,2196,-1005
4834000,12884,1108,9628,-924,1865,-1008
4836004,12828,1012,9696,-1015,1551,-1007
4838000,12752,1044,9872,-1175,1212,-1074
4840000,12764,1028,9836,-1184,927,-1213
4842004,12760,1044,9868,-1259,572,-1287
4844000,12820,892,9864,-1265,335,-1426
4846000,12800,752,9936,-1238,153,-1633
4848000,12820,660,9940,-1225,52,-1721
4850004,12724,540,9928,-1149,40,-1845
4852000,12660,436,9936,-1084,53,-1949
4854000,12572,364,9964,-987,127,-1986
4856000,12608,292,10152,-848,165,-2054
4858000,12540,256,10084,-767,241,-2087
4860000,12616,272,10216,-638,360,-2050
4862000,12632,356,10264,-516,513,-2037
4864000,12644,432,10324,-393,654,-2004
4866000,12628,432,10352,-292,847,-1953
4868004,12704,516,10340,-181,1046,-1846
4870000,12712,588,10432,-86,1277,-1798
4872004,12764,728,10440,19,1487,-1716
4874000,12768,784,10364,68,1651,-1658
4876000,12816,984,10372,148,1899,-1593
4878000,12704,1080,10332,245,2113,-1489
4880000,12804,1208,10260,254,2328,-1434
4882004,12820,1356,10280,320,2574,-1326
4884000,12716,1532,10324,337,2785,-1178
4886000,12668,1564,10328,367,2935,-1057
4888000,12632,1616,10308,318,3055,-973
4890000,12656,1688,10436,283,3114,-795
4892000,12608,1840,10408,275,3177,-678
4894000,12828,1740,10484,276,3204,-556
4896000,12820,1804,10544,277,3172,-549
4898000,12664,1876,10580,174,3015,-449
4900004,12664,1984,10748,183,2932,-360
4902000,12536,2072,10704,105,2828,-262
4904000,12536,2068,10660,21,2759,-242
4906000,12560,2068,10636,-75,2623,-126
4908000,12632,2032,10652,-184,2601,-60
4910000,12716,2108,10680,-297,2517,43
4912000,12676,2068,10716,-495,2414,95
4914000,12712,2036,10756,-615,2369,229
4916000,12760,2012,10520,-792,2345,288
4918000,12860,1920,10372,-984,2334,359
4920000,13000,1892,10428,-1183,2380,458
4922000,13036,2004,10268,-1421,2323,550
4924000,13120,1892,10308,-1683,2335,649
4926000,13344,1808,10244,-1908,2241,717
4928000,13472,1764,10136,-2154,2180,765
4930000,13652,1684,10060,-2391,2145,784
4932000,13660,1688,10060,-2622,2034,819
4934000,13764,1672,9912,-2854,1957,799
4936000,13860,1616,9716,-3068,1929,723
4938000,13936,1460,9660,-3277,1852,716
4940004,13840,1400,9520,-3446,1734,655
4942000,14008,1400,9492,-3632,1586,582
4944000,13972,1348,9512,-3758,1463,574
4946000,14068,1380,9452,-3903,1417,458
4948000,14080,1328,9308,-4030,1425,389
4950000,14116,1248,9172,-4119,1408,375
4952000,14208,1188,9096,-4175,1473,269
4954000,14140,1276,9148,-4314,1585,244
4956000,14056,1388,9000,-4392,1723,250
4958000,14136,1288,8916,-4405,1896,242
4960000,13964,1384,8936,-4522,2150,227
4962000,13876,1484,8856,-4496,2398,252
4964004,13968,1572,8752,-4526,2605,259
4966000,13968,1556,8740,-4573,2894,236
4968000,14008,1588,8756,-4577,3115,233
4970004,14016,1592,8700,-4555,3332,208
4972000,14116,1692,8648,-4511,3561,126
4974000,14084,1620,8676,-4465,3765,93
4976000,13944,1672,8716,-4414,3870,52
4978000,13828,1704,8696,-4346,3968,-51
4980000,13784,1624,8620,-4336,4027,-145
4982000,13700,1644,8812,-4218,4027,-224
4984000,13580,1628,8796,-4126,4077,-296
4986000,13508,1620,8676,-4058,4157,-452
4988000,13384,1576,8804,-3999,4193,-544
4990000,13336,1612,8872,-3923,4363,-645
4992000,13236,1620,8840,-3899,4542,-759
4994000,13080,1564,9004,-3847,4726,-824
4996000,13008,1664,8980,-3845,4877,-918
4998000,12940,1540,9004,-3868,5171,-936
5000004,13000,1564,9028,-3960,5521,-975
5002000,12788,1640,9068,-4010,5895,-1028
5004000,12792,1540,9264,-4110,6348,-982
5006000,12704,1592,9148,-4236,6841,-955
5008000,12716,1552,9356,-4396,7407,-900
5010004,12888,1376,9352,-4571,8091,-924
5012000,12964,1284,9480,-4677,8932,-897
5014000,12720,1252,9720,-4869,9610,-850
5016000,12636,1248,9932,-5058,10263,-777
5018000,12644,1148,9824,-5229,10958,-721
5020000,12548,1036,10016,-5440,11637,-589
5022000,12564,816,10092,-5616,12365,-542
5024000,12568,684,10140,-5762,13051,-455
5026000,12544,584,10424,-5940,13728,-408
5028000,12524,480,10500,-6052,14340,-375
5030000,12360,376,10756,-6214,14829,-340
5032000,12228,372,10964,-6278,15207,-320
5034000,12112,404,11288,-6343,15415,-341
5036000,12180,352,11328,-6313,15515,-434
5038000,12112,312,11584,-6316,15435,-526
5040000,11916,344,11924,-6249,15130,-664
5042000,11812,396,12092,-6148,14624,-819
5044000,11728,464,12100,-5994,14066,-964
5046000,11680,544,12164,-5845,13409,-1148
5048004,11636,456,12296,-5632,12694,-1343
5050000,11704,484,12320,-5369,11868,-1570
5052000,11624,540,12344,-5167,11036,-1819
5054000,11536,544,12352,-4941,10221,-2069
5056000,11556,652,12376,-4673,9290,-2320
5058000,11496,640,12412,-4467,8401,-2598
5060000,11680,776,12376,-4211,7497,-2862
5062000,11724,844,12396,-4026,6669,-3182
5064000,11804,908,12144,-3858,5901,-3463
5066000,11980,932,11788,-3677,5300,-3720
5068000,12104,1028,11724,-3546,4789,-4014
5070000,12340,1152,11624,-3440,4354,-4237
5072000,12412,1144,11464,-3356,4093,-4466
5074000,12540,1244,11184,-3267,3955,-4715
5076004,12744,1324,11224,-3240,3911,-4923
5078000,12776,1400,11252,-3218,3945,-5062
5080000,12876,1580,11080,-3232,4017,-5225
5082000,12980,1724,10856,-3247,4217,-5298
5084000,12976,1772,10916,-3247,4456,-5385
5086000,12976,1916,10808,-3271,4751,-5440
5088000,13008,1948,10776,-3333,5135,-5480
5090004,12904,2120,10720,-3365,5616,-5451
5092000,12868,2256,10584,-3474,6031,-5457
5094000,12884,2292,10720,-3588,6522,-5401
5096000,12836,2288,10568,-3646,7021,-5353
5098004,12768,2372,10648,-3779,7505,-5254
5100000,12784,2392,10588,-3914,7988,-5210
5102000,12724,2468,10800,-4096,8535,-5159
5104000,12752,2388,10704,-4169,9026,-5105
5106004,12768,2464,10812,-4272,9528,-5024
5108000,12656,2484,10904,-4437,10088,-4983
5110000,12640,2492,10940,-4537,10717,-4927
5112000,12680,2500,11004,-4632,11300,-4856
5114000,12536,2564,11096,-4758,11969,-4809
5116000,12432,2588,11180,-4843,12681,-4724
5118000,12376,2616,11196,-4976,13442,-4627
5120000,12200,2608,11140,-5052,14220,-4489
5122000,12020,2552,11256,-5141,15030,-4424
5124004,11780,2544,11328,-5288,15811,-4285
5126000,11720,2488,11196,-5416,16615,-4201
5128004,11600,2540,11176,-5560,17412,-4092
5130000,11364,2568,11248,-5733,18155,-3967
5132000,11252,2572,11092,-5818,18825,-3786
5134000,11192,2568,11092,-5976,19494,-3677
5136000,11128,2476,11048,-6111,20093,-3503
5138004,11016,2492,10876,-6315,20583,-3343
5140000,10928,2592,11028,-6487,20965,-3231
5142000,10940,2384,11056,-6628,21211,-3061
5144000,10864,2516,11288,-6780,21305,-2941
5146000,10972,2652,11536,-6861,21201,-2828
5148000,11168,2708,11924,-6924,20916,-2769
5150000,11352,2904,12472,-6853,20450,-2660
5152000,11524,3064,12704,-6781,19809,-2702
5154000,11704,3192,13244,-6632,18981,-2662
5156000,11804,3284,13340,-6312,18051,-2713
5158000,11984,3312,13332,-6091,16961,-2734
5160000,12184,3256,13256,-5809,15793,-2758
5162000,12316,3392,13196,-5520,14554,-2799
5164000,12532,3568,13008,-5241,13291,-2866
5166000,12720,3744,13012,-4960,12046,-2989
5168000,12956,3972,13096,-4657,10883,-3057
5170000,13208,4156,13088,-4307,9817,-3212
5172000,13344,4256,13232,-4016,8786,-3340
5174000,13436,4332,13088,-3721,7899,-3463
5176000,13584,4448,12932,-3458,7165,-3613
5178000,13588,4408,12920,-3213,6629,-3705
5180000,13628,4464,12852,-3004,6224,-3833
5182000,13500,4436,12816,-2842,6008,-3922
5184000,13472,4420,12716,-2680,5952,-3961
5186000,13360,4332,12880,-2630,5934,-3963
5188000,13120,4340,12716,-2580,6079,-3933
5190000,12964,4176,12696,-2552,6272,-3955
5192000,12852,3916,12480,-2587,6620,-3864
5194000,12668,3640,12380,-2715,7062,-3770
5196000,12532,3348,12184,-2908,7514,-3713
5198000,12332,3148,12000,-3160,8046,-3596
5200000,12228,2900,11992,-3509,8549,-3474
5202000,12072,2820,12128,-3793,9140,-3358
5204004,12100,2704,12280,-4128,9691,-3240
5206000,11912,2768,12664,-4426,10193,-3126
5208000,11612,2824,13160,-4753,10637,-3023
5210000,11476,2912,13556,-5005,11004,-2883
5212000,11168,3032,13924,-5254,11416,-2728
5214000,10996,3336,14140,-5399,11734,-2551
5216000,10632,3412,14132,-5514,12177,-2337
5218004,10332,3644,14248,-5675,12552,-2105
5220000,10028,3768,14332,-5794,12943,-1828
5222000,9680,3880,14032,-5948,13358,-1595
5224000,9368,4008,13892,-6061,13702,-1304
5226004,9004,4084,13620,-6219,14077,-987
5228000,8732,4156,13368,-6350,14436,-672
5230000,8488,4176,13108,-6528,14733,-314
5232000,8408,4232,12932,-6684,15099,-15
5234004,8256,4112,12776,-6869,15445,280
5236000,8172,4104,12804,-6988,15743,567
5238000,8228,4004,12764,-7105,16020,880
5240000,8176,3848,12976,-7196,16312,1145
5242000,8200,3796,13060,-7310,16541,1394
5244000,8348,3520,13272,-7403,16808,1593
5246000,8444,3372,13264,-7456,17017,1836
5248000,8352,3064,13564,-7561,17119,2028
5250000,8476,2852,13720,-7630,17128,2233
5252004,8608,2560,13912,-7749,17088,2422
5254000,8768,2368,13976,-7833,16969,2549
5256004,9044,2156,14096,-7878,16999,2685
5258000,9220,2048,14292,-7952,16998,2802
5260000,9284,2028,14436,-8026,16959,2942
5262000,9340,2012,14676,-8062,16957,3045
5264000,9300,2040,14960,-8169,16884,3097
5266004,9340,1852,15104,-8219,16897,3181
5268000,9264,1888,15172,-8213,16899,3237
5270000,9212,1784,15288,-8266,16914,3254
5272000,9260,1720,15316,-8309,16979,3308
5274000,9280,1728,15276,-8377,17003,3341
5276000,9212,1696,15264,-8440,16921,3380
5278000,9056,1620,15160,-8476,16809,3374
5280000,9016,1476,15192,-8498,16711,3434
5282000,9044,1384,14968,-8515,16633,3423
5284000,8980,1312,14872,-8613,16545,3444
5286000,8804,1268,15048,-8663,16356,3433
5288000,8772,1188,15028,-8692,16137,3419
5290000,8672,1212,15188,-8668,15929,3487
5292000,8504,1092,15292,-8700,15649,3488
5294000,8360,1104,15364,-8724,15396,3498
5296000,8156,1052,15496,-8634,15091,3563
5298000,8080,1112,15432,-8604,14834,3576
5300000,7996,1076,15592,-8591,14569,3564
5302000,7800,1000,15692,-8498,14416,3615
5304000,7724,900,15752,-8403,14211,3609
5306000,7648,760,15840,-8318,13995,3625
5308000,7488,664,15688,-8198,13923,3602
5310000,7460,480,15864,-8145,13811,3586
5312000,7324,360,15804,-7980,13729,3575
5314000,7184,252,15896,-7952,13675,3571
5316000,7112,120,15824,-7869,13642,3540
5318000,6932,12,15756,-7831,13635,3500
5320000,6868,-148,15680,-7769,13652,3441
5322000,6792,-356,15748,-7681,13734,3430
5324000,6732,-428,15684,-7689,13752,3409
5326000,6744,-508,15720,-7580,13930,3325
5328000,6716,-620,15684,-7613,14075,3312
5330000,6700,-756,15648,-7569,14221,3255
5332000,6664,-932,15652,-7558,14334,3150
5334004,6708,-932,15628,-7587,14504,3131
5336000,6816,-1088,15620,-7532,14699,3112
5338000,6732,-1128,15748,-7529,14951,2992
5340000,6832,-1228,15864,-7505,15219,2978
5342000,6840,-1352,15956,-7501,15488,2876
5344000,6784,-1420,15932,-7434,15747,2883
5346000,6848,-1460,16096,-7376,15965,2859
5348000,6840,-1560,16192,-7371,16152,2805
5350000,6848,-1580,16144,-7301,16354,2825
5352000,6884,-1640,16148,-7264,16556,2867
5354004,6972,-1712,16408,-7217,16712,2882
5356000,6972,-1784,16616,-7090,16762,2927
5358000,6996,-1840,16624,-6975,16794,2899
5360000,6928,-1948,16840,-6853,16693,3013
5362000,7116,-2020,16836,-6690,16567,3044
5364000,7236,-2068,17208,-6498,16307,3064
5366000,7412,-2164,17316,-6246,15928,3107
5368000,7740,-2148,17280,-6000,15547,3089
5370000,7992,-2248,17252,-5730,15115,3114
5372000,8152,-2280,17276,-5477,14613,3092
5374000,8344,-2172,17208,-5196,14080,3082
5376000,8480,-2160,17188,-4894,13526,3052
5378000,8544,-2044,17004,-4598,13055,3045
5380000,8472,-1964,17188,-4256,12508,3045
5382000,8476,-1700,17092,-3877,11930,3021
5384004,8604,-1624,17036,-3498,11497,3001
5386000,8628,-1700,16800,-3113,11086,2960
5388000,8508,-1464,16616,-2732,10691,2907
5390000,8236,-1208,16188,-2362,10397,2893
5392000,8180,-1056,15908,-2014,10225,2875
5394004,8024,-956,15508,-1683,10180,2870
5396000,7912,-992,15288,-1417,10230,2898
5398000,7672,-900,14944,-1128,10401,2894
5400000,7488,-852,14584,-959,10653,2941
5402000,7376,-904,14420,-795,10944,3002
5404000,7284,-1008,14368,-702,11213,3027
5406000,7208,-976,14532,-652,11526,3068
5408000,7064,-1084,14472,-526,11906,3134
5410000,6944,-1084,14392,-491,12332,3157
5412004,6876,-1216,14556,-464,12724,3191
5414000,6808,-1228,14648,-503,13156,3210
5416000,6716,-1384,14504,-516,13551,3207
5418000,6440,-1448,14384,-587,14026,3279
5420000,6228,-1584,14232,-689,14467,3337
5422000,5992,-1584,14520,-754,14818,3385
5424000,5804,-1660,14468,-860,15228,3450
5426000,5652,-1672,14524,-949,15682,3553
5428000,5472,-1876,14424,-1093,16095,3591
5430000,5288,-1796,14520,-1193,16486,3698
5432000,5060,-1844,14472,-1392,16914,3832
5434000,4924,-1848,14484,-1526,17379,3917
5436000,4792,-1872,14544,-1705,17785,4060
5438000,4404,-1744,14536,-1868,18129,4249
5440000,4152,-1628,14552,-2068,18490,4427
5442000,4128,-1668,14320,-2279,18866,4668
5444000,3888,-1576,14244,-2486,19349,4941
5446000,3704,-1492,14236,-2676,19778,5226
5448000,3404,-1464,14224,-2878,20212,5528
5450000,3384,-1440,14160,-3139,20610,5835
5452004,3864,-1652,13936,-3260,21007,6009
5454000,3636,-2120,14108,-3393,21371,6181
5456004,3172,-1752,13628,-3464,21707,6479
5458000,3032,-1512,13276,-3565,22142,6822
5460004,3016,-1620,13424,-3593,22497,7063
5462000,2752,-1664,13356,-3675,22684,7303
5464000,2676,-1524,13936,-3645,22900,7519
5466000,2688,-1540,14156,-3586,23006,7686
5468000,2616,-1544,14112,-3555,23124,7956
5470000,2528,-1548,13740,-3494,23391,8094
5472000,2476,-1460,14300,-3393,23354,8266
5474000,2344,-1428,14384,-3311,23295,8487
5476000,2320,-1380,13948,-3183,23380,8634
5478000,1956,-1308,14580,-3091,23198,8793
5480000,1896,-1308,14652,-2945,22873,8921
5482000,1956,-1412,14772,-2853,22720,9032
5484000,1868,-1368,14748,-2701,22570,9163
5486000,1660,-1232,14788,-2623,22395,9282
5488000,1440,-1316,14656,-2497,22263,9403
5490000,1292,-1380,14660,-2435,22128,9454
5492000,1136,-1456,15044,-2342,21931,9495
5494000,1048,-1592,15280,-2275,21593,9583
5496000,1084,-1656,14876,-2254,21543,9659
5498000,1076,-1952,14956,-2203,21397,9621
5500000,884,-1992,15036,-2159,21180,9648
5502000,844,-2184,15376,-2127,20988,9606
5504000,836,-2404,15416,-2130,20759,9547
5506000,876,-2644,15604,-2115,20560,9485
5508000,728,-2752,15888,-2101,20216,9339
5510000,676,-2928,16068,-2074,19808,9270
5512004,860,-3192,16020,-2041,19552,9174
5514000,664,-3240,16556,-2006,19080,8978
5516000,604,-3444,16640,-2015,18710,8810
5518000,516,-3696,16816,-1961,18274,8652
5520000,320,-3728,17080,-1915,17738,8478
5522004,196,-3868,17060,-1927,17300,8282
5524000,76,-3956,17364,-1908,16813,8149
5526000,-68,-4000,17352,-1898,16413,7968
5528000,-312,-3980,17592,-1921,15912,7798
5530000,-432,-3984,17460,-1944,15425,7626
5532000,-520,-4112,17504,-1958,15094,7442
